sample,time,acc_x,acc_y,acc_z,gyr_x,gyr_y,gyr_z
0,0,-3.478290796,1.754658797,9.61907698,-1.689578507,-1.341747833,-0.195567968
1,0.009765625,-3.325337613,1.652183951,9.763160297,-5.190842705,-2.175070436,2.744590193
2,0.01953125,-3.365364466,1.643196139,9.619493998,-6.511321891,-4.227059354,4.272880937
3,0.029296875,-3.423351443,1.491094447,9.472190171,-5.103430009,-7.830016621,2.725375118
4,0.0390625,-3.458437353,1.314756324,9.533012773,-1.714087007,-8.69667803,-0.591399828
5,0.048828125,-3.299704163,1.305393825,9.625332407,1.426783297,-8.172258366,-3.657860416
6,0.05859375,-3.22478468,1.263714251,9.852785576,5.485452843,-10.05581179,-7.344863262
7,0.068359375,-3.15191561,0.823010447,10.30445823,6.150890078,-9.460991569,-9.930289028
8,0.078125,-3.0056658,0.50081249,10.40902841,3.319193967,-10.74016012,-9.085646969
9,0.087890625,-3.034502169,0.477309854,10.44966274,-0.427090225,-10.65963582,-6.5753886
10,0.09765625,-3.06139018,0.425101091,10.54287187,-1.617901634,-14.34222298,-5.730674229
11,0.107421875,-2.854395229,0.21677117,10.54333936,-2.577107487,-15.82511864,-5.308939743
12,0.1171875,-2.892174797,-0.004922711,10.56752191,1.124948066,-6.598022088,-7.972124806
13,0.126953125,-2.301988238,0.046735346,10.29317842,2.572555784,-8.220929594,-3.035259438
14,0.13671875,-1.910039291,0.038968301,10.21820578,9.999230639,12.13453928,8.300965354
15,0.146484375,-2.705323043,0.183650719,10.61500034,19.48701333,53.16884814,26.93722869
16,0.15625,-3.440738376,0.504378009,10.59962226,19.29339982,77.86118446,35.78185016
17,0.166015625,-3.512105891,0.906808148,10.32102451,17.71136175,80.82235153,35.10544726
18,0.17578125,-3.625037504,0.963339102,10.14742308,15.38956719,74.27596201,34.8240018
19,0.185546875,-3.41610112,0.793176007,10.41580995,13.77658592,73.17997704,28.33462238
20,0.1953125,-3.071717857,0.434758499,10.85391739,10.35959552,93.74170127,28.08012611
21,0.205078125,-3.717715983,0.398142717,11.58063514,-13.58202414,90.46487949,62.61461497
22,0.21484375,-5.424261018,0.486326835,10.0018897,-44.50256053,90.3324906,75.9650642
23,0.224609375,-5.894686503,0.552703186,8.698181821,-52.16789583,94.53466105,29.92075165
24,0.234375,-6.162140431,0.570747696,8.461716615,-48.43354781,94.72734946,-1.458788539
25,0.244140625,-6.126563673,0.49144216,8.223117058,-44.70736862,57.7791716,-30.12985561
26,0.25390625,-5.527293869,-0.474903998,8.055866939,-41.47500928,13.32563813,-66.60229647
27,0.263671875,-5.42216476,-1.033123951,8.465591989,-32.96830447,10.73956444,-93.09359857
28,0.2734375,-5.49873909,-1.567408718,9.36982754,-21.48316743,36.29122872,-104.9749814
29,0.283203125,-5.660029121,-2.305782407,8.562127328,-18.25079902,53.97104371,-103.663129
30,0.29296875,-6.268104975,-2.603141946,7.679774341,18.43134937,84.75525372,-113.5462186
31,0.302734375,-6.461229228,-2.507379407,8.250365544,55.83055928,89.80916871,-117.9631414
32,0.3125,-6.400986446,-2.813981259,7.779084881,60.26946572,48.03773731,-126.5985894
33,0.322265625,-7.236039792,-2.401015996,7.223728928,94.24048381,49.2666649,-127.1600557
34,0.33203125,-8.728951094,-4.442572842,7.712792556,167.9163327,56.8405791,-107.8785698
35,0.341796875,-7.887585315,-2.913302063,9.914527379,192.4681402,30.38949654,-133.876922
36,0.3515625,-7.464643335,-1.989716843,10.35715472,164.9807421,-42.11726267,-161.0430298
37,0.361328125,-7.480835465,-2.111279482,9.824755298,147.4709593,-107.93999,-183.4463181
38,0.37109375,-6.440964425,-1.303774679,10.85314229,133.9369492,-148.758104,-200.9922254
39,0.380859375,-5.908645421,-1.076797164,9.829325578,79.16990633,-166.6250059,-203.2480526
40,0.390625,-6.171801279,-1.18780196,9.334212055,71.11687017,-156.2483778,-216.5163466
41,0.400390625,-5.845999676,-0.224767143,10.63185047,87.14474854,-122.8162024,-224.8924383
42,0.41015625,-5.280062245,0.539139244,11.19163408,60.1309112,-107.5087871,-210.1110848
43,0.419921875,-5.046035389,0.753429913,10.62538903,25.97188856,-98.35888782,-199.2742195
44,0.4296875,-4.869217133,0.791760397,9.572830932,-10.17403307,-74.46907288,-196.9709934
45,0.439453125,-4.981168633,0.729014407,7.885764487,-27.32878124,-45.31723215,-198.5616511
46,0.44921875,-5.504082129,0.676684274,6.287741465,-22.34943781,-26.7452137,-197.9162937
47,0.458984375,-5.780980961,0.298398602,4.770874169,7.430400326,-56.12721886,-202.8622355
48,0.46875,-5.847393172,-0.711380964,4.738575177,58.45511966,-108.6895164,-214.9354948
49,0.478515625,-5.589554454,-0.261186476,6.506024332,111.5281404,-109.6829211,-227.9293001
50,0.48828125,-4.559897678,0.520154432,7.693035761,116.7687423,-95.68395371,-226.126423
51,0.498046875,-4.064287671,-0.353973572,7.542347473,101.4329587,-86.54121778,-212.1701495
52,0.5078125,-3.458009574,-0.185640964,8.621185318,83.78036895,-95.66386328,-168.8639269
53,0.517578125,-2.83274657,-0.27789745,8.873866468,62.32183697,-111.0873686,-105.7355027
54,0.52734375,-4.839649836,-0.149381598,4.607891714,50.79876226,-96.07890555,-44.23917792
55,0.537109375,-6.511049145,-1.793780616,1.681955607,55.45378685,-26.25896081,2.478888113
56,0.546875,-1.554244298,12.83211389,5.363317887,28.96377849,30.84057743,17.5933231
57,0.556640625,-4.514654349,0.302417208,5.351882257,-36.86874733,59.50077163,-101.1486345
58,0.56640625,-4.145810906,-0.163886788,6.007209169,27.08518521,-57.65376131,-47.62024774
59,0.576171875,-2.21077419,0.248534612,10.60438567,27.16414931,-52.68589486,-37.17722777
60,0.5859375,-3.241591075,-0.68819276,10.11679827,14.21876854,-1.252348508,-56.86685703
61,0.595703125,-2.972994956,-0.34534697,9.512106538,16.55000357,-23.09478377,-53.35290701
62,0.60546875,-3.157262735,-0.925740322,8.948193154,12.03412303,-54.72342163,-41.58022913
63,0.615234375,-4.335581789,-2.911534366,6.818520113,22.08572221,-57.85939661,-52.52003031
64,0.625,-4.266050829,-2.202909475,7.244833357,74.16311797,-58.29779645,-49.60141366
65,0.634765625,-6.434240344,-1.157764372,8.243782189,108.4337478,-67.3236632,-20.46319195
66,0.64453125,-7.028358371,-0.012346075,8.84534895,113.4362095,-70.83094932,-42.04062806
67,0.654296875,-5.298737423,-0.303669169,8.398574547,83.13656517,-24.25785506,-98.3558457
68,0.6640625,-4.270380977,-0.384664168,8.080604488,58.52037472,23.21340442,-128.3594844
69,0.673828125,-3.817118699,0.318753285,8.007395573,40.02997207,46.51310072,-144.1039969
70,0.68359375,-3.43143718,0.401867833,7.932584787,25.16099063,38.19361469,-142.4820386
71,0.693359375,-2.233107189,0.930120384,8.286299842,25.38977397,3.556946244,-109.1045061
72,0.703125,-4.242893649,1.638691591,8.44688284,0.66386573,1.342223909,-77.65477309
73,0.712890625,-3.87997262,1.363698163,8.503317864,-21.39711204,7.722072137,-110.6875281
74,0.72265625,-2.853411639,0.08316437,8.983055292,-26.65323114,-10.51514009,-91.71623238
75,0.732421875,-2.442982322,0.395264015,9.298924568,-5.805300342,-26.14332177,-64.52057824
76,0.7421875,-1.866224698,0.80072461,9.072636573,4.072753242,-39.1473108,-52.42412429
77,0.751953125,-0.7539261,0.467623325,9.27490501,14.501058,-41.45264242,-39.11556112
78,0.76171875,-1.334099539,0.480119539,11.184321,26.19731955,-21.14199602,-18.87442841
79,0.771484375,-1.592458067,1.123870789,12.27460746,15.77457716,-4.170426118,-6.037770965
80,0.78125,-1.653616251,0.195353416,11.52816744,14.16320607,-9.109950165,-2.793740402
81,0.791015625,-2.565671243,0.609330389,11.31938732,38.48038964,-21.90097751,-0.554199185
82,0.80078125,-4.104327955,1.022376447,11.01345711,50.00814708,-35.02241373,0.076279326
83,0.810546875,-3.189809337,1.471205343,9.126190739,71.42734988,-49.20611827,6.922719684
84,0.8203125,-2.154315078,2.40808164,8.033763922,81.8033398,-25.50818852,13.47402391
85,0.830078125,-0.812772299,3.517584998,6.779409866,56.67362777,-17.58665436,5.969861708
86,0.83984375,-0.969454908,4.126591253,7.101829837,40.63697173,-52.42660685,-11.69149127
87,0.849609375,0.711629579,4.729446638,7.449403186,43.14876802,-64.77820477,0.801206989
88,0.859375,0.01807285,3.498668039,9.209486381,32.77959356,-23.94702369,21.43215733
89,0.869140625,-1.166417216,2.862515552,10.25445624,24.47518407,3.744633776,35.9825615
90,0.87890625,-2.371850755,2.274653331,9.704081786,-4.380176527,40.64475756,43.92043886
91,0.888671875,-3.737760175,1.19194453,9.648953077,-26.44753555,60.39064333,47.57703803
92,0.8984375,-3.567178476,1.22779635,9.893476545,-29.63229485,46.52659251,43.07090214
93,0.908203125,-3.206590634,1.468932096,9.975195445,-32.47015833,35.3255623,39.99464176
94,0.91796875,-3.076228729,1.873362189,9.73915379,-40.72894663,35.37052517,34.70885592
95,0.927734375,-2.725545067,2.160101972,9.300954671,-54.41768634,47.28225149,30.73189558
96,0.9375,-2.943291853,2.31359095,9.549415479,-69.88858768,64.96547688,29.35676184
97,0.947265625,-3.477357101,1.714086956,9.174350545,-81.40813296,76.63744438,27.98102444
98,0.95703125,-3.396465373,1.311635368,8.641724985,-78.2608156,72.66286823,33.65870506
99,0.966796875,-3.352318734,1.635905368,9.199914929,-64.11706768,64.13420277,44.37380242
100,0.9765625,-2.77400268,2.664877326,9.630688324,-61.61320167,59.81005394,39.18980366
101,0.986328125,-2.703392802,2.047473577,9.480555023,-63.8986525,61.47530642,30.05397014
102,0.99609375,-3.537997403,1.743521915,9.69947914,-55.82452952,63.23056084,32.44571252
103,1.005859375,-4.222553678,1.270237975,10.02872308,-53.86670749,56.78561331,34.83920684
104,1.015625,-4.818641738,0.413525606,9.732917621,-55.71019196,50.90674094,35.30280059
105,1.025390625,-5.677089628,-0.343993382,9.342546108,-48.60489181,40.91254192,37.1552018
106,1.03515625,-5.966148969,-0.287449453,9.307943596,-34.341124,24.53301634,35.01242876
107,1.044921875,-5.59165643,0.280788741,9.744952926,-23.35680213,-1.443609314,36.45905122
108,1.0546875,-4.310480727,1.801759948,10.9426223,-19.9827243,-11.48549692,32.43172013
109,1.064453125,-3.702573465,2.376376586,11.16034311,-24.61832211,-10.53153467,23.28133968
110,1.07421875,-2.674097013,2.55582135,10.82901818,-25.95633933,-19.37492667,18.80214967
111,1.083984375,-1.413863477,2.440554268,10.68184665,-17.40324664,-14.67050884,15.22283325
112,1.09375,-1.735237387,1.907342939,10.86189012,-4.494364291,10.51492168,18.64621405
113,1.103515625,-0.984276397,1.617509486,10.53695012,-16.13757735,23.87449354,49.35367698
114,1.11328125,-1.812838642,1.306260532,11.09799826,-13.8461658,44.4733943,98.35597816
115,1.123046875,-2.370185259,1.894529342,11.13997872,-15.24321991,25.65713281,155.8386465
116,1.1328125,-3.519827712,1.081343131,10.27671986,-11.35631832,26.18639234,140.0682252
117,1.142578125,-5.842783204,2.338984895,10.4898505,43.17096516,51.63490232,50.24840534
118,1.15234375,-4.048314411,1.198515044,10.29942575,56.51831348,73.64381459,-86.98655597
119,1.162109375,-3.320672727,0.168423402,9.077325043,27.76864292,64.4190073,-117.517023
120,1.171875,-1.973173139,1.994398249,9.696999156,35.18875206,67.25469957,-123.8229477
121,1.181640625,-4.791474729,3.605088072,11.52133703,76.45791065,56.75689158,-124.5727639
122,1.19140625,-2.32671564,3.358442991,12.3474987,73.40988586,22.64667589,-187.3207599
123,1.201171875,0.234740228,2.723638355,11.35782517,46.55791487,4.954380599,-209.9748071
124,1.2109375,0.670457932,3.489351336,11.79483643,51.55909937,-9.494482105,-165.3986456
125,1.220703125,0.411028086,2.962571473,11.12345165,33.98658939,-35.08143583,-87.85051394
126,1.23046875,-0.162841338,3.013481645,11.02509229,21.23775206,-52.39277917,-30.85274945
127,1.240234375,-0.925094796,3.934231665,11.55884142,12.66035394,-69.75421272,21.97145991
128,1.25,-1.626656422,4.397821259,11.79237518,8.364176674,-72.52185465,36.31316179
129,1.259765625,-0.983687727,4.138079729,11.94770489,15.10086669,-64.99229998,28.35446152
130,1.26953125,-0.632644887,3.805929399,11.82392528,22.12727186,-57.30372942,26.93677281
131,1.279296875,-1.221245373,4.043417715,11.68096543,27.99788393,-50.09203945,32.17383517
132,1.2890625,-1.954326995,4.672313574,11.8586075,35.31358624,-39.78204615,30.70505985
133,1.298828125,-2.27376211,4.633656025,12.1564294,41.86477169,-35.13804777,33.34577709
134,1.30859375,-2.231686542,4.138447244,12.40894298,47.37296884,-39.13443302,34.84069944
135,1.318359375,-2.052319629,3.849225066,12.66131213,49.12391473,-51.74734485,34.31232815
136,1.328125,-2.257137568,4.055127743,12.71986062,46.52803343,-67.11196785,42.45012126
137,1.337890625,-2.875766582,4.118610826,12.54098358,44.4677791,-84.17244918,59.6529636
138,1.34765625,-3.058974852,3.679162538,12.06800146,41.61740222,-97.75326272,70.44825332
139,1.357421875,-3.163255332,3.016432936,11.49434432,32.77160612,-104.4118024,74.20433608
140,1.3671875,-4.228912573,2.030064854,10.58580377,17.99587651,-106.886406,75.53865609
141,1.376953125,-4.414969467,0.259794453,10.04586538,-1.429815998,-105.4278341,67.79456996
142,1.38671875,-4.657759334,-2.126089736,9.063231397,-19.1595953,-106.4155888,63.25848637
143,1.396484375,-5.752206399,-2.306992821,9.215314927,-7.095823739,-115.4759872,56.74998592
144,1.40625,-7.038902333,-0.807994889,9.873849695,11.65646314,-129.9393516,36.06872714
145,1.416015625,-7.355754309,0.24532846,9.567575032,13.28227796,-128.617996,-0.561234459
146,1.42578125,-7.343968138,0.321805514,8.235698134,10.37509423,-120.0969393,-18.12773272
147,1.435546875,-6.875425852,1.381029135,8.144488174,20.64376243,-111.5356773,-12.3698759
148,1.4453125,-6.288047345,2.531661421,9.110011344,22.27044196,-102.6684406,-0.363135381
149,1.455078125,-5.463403131,3.970509193,10.25506832,14.6947744,-100.483922,12.25166376
150,1.46484375,-5.016755446,4.939145103,10.85462908,11.21949883,-96.66883736,22.24059695
151,1.474609375,-4.639722867,5.514520921,11.25845304,16.45134671,-81.35134245,25.46684719
152,1.484375,-4.742333258,5.427539684,11.15199248,24.41072959,-66.83300922,24.0160125
153,1.494140625,-4.931441914,4.949906752,10.9464066,24.83349298,-55.18120654,26.52623756
154,1.50390625,-5.289822659,4.441132122,10.87114329,22.94799287,-41.73687964,32.79382977
155,1.513671875,-4.892677921,4.309012778,11.05150395,22.4169106,-33.42041696,37.75509244
156,1.5234375,-4.076123602,4.421972907,11.50926707,20.21177393,-30.44330845,48.42620924
157,1.533203125,-3.409875222,4.00664898,11.32642316,16.47952344,-37.20161061,61.76991696
158,1.54296875,-2.089803375,3.345826174,10.88588362,16.00141563,-52.60676305,66.77234056
159,1.552734375,-1.132221351,3.100921855,10.69208104,12.31306868,-65.83014583,72.56780795
160,1.5625,-0.262552657,3.10094063,10.49466253,2.825815331,-80.53548848,85.66925048
161,1.572265625,0.047022527,3.15882379,10.38031134,-0.489684284,-84.93029399,95.75383275
162,1.58203125,0.076520366,3.189512469,10.13905466,2.13932745,-77.13157957,89.3788642
163,1.591796875,0.291042838,2.885564421,9.698486438,9.947748389,-63.9482783,74.16609871
164,1.6015625,0.34531886,2.478679293,9.319232148,19.20626052,-52.24086919,62.04007062
165,1.611328125,0.541395632,2.332639418,9.195561137,22.45758429,-46.42465667,50.23282621
166,1.62109375,0.770299736,2.157469578,9.119782588,20.64525676,-42.36446181,40.05904853
167,1.630859375,0.689387349,2.139466614,9.122512303,18.64466871,-39.94809226,38.63834016
168,1.640625,0.678614521,2.027305139,9.195955546,18.10735095,-42.24955643,41.65030834
169,1.650390625,0.61473972,1.490603465,9.010756846,21.88136508,-51.96397574,49.77878511
170,1.66015625,0.561753894,1.64664704,8.957430137,28.12443329,-60.72674165,58.29338588
171,1.669921875,0.057987749,1.285641741,8.732280668,15.63996689,-61.53065397,56.12904775
172,1.6796875,0.403375838,1.137537288,8.698387784,11.93409948,-66.74275696,49.86135691
173,1.689453125,0.9468149,1.175433359,8.931359463,21.11341824,-68.03498858,49.71895559
174,1.69921875,0.783513438,0.933984236,8.781412178,32.06507828,-61.3258947,49.49010591
175,1.708984375,0.371086508,0.946850009,8.57090015,38.62583222,-57.17172551,47.9343579
176,1.71875,-0.033341913,1.337109754,8.464488842,45.25868314,-53.74111101,41.56476913
177,1.728515625,-0.180223602,1.558977832,8.253858946,52.59833457,-44.75030101,29.85125544
178,1.73828125,-0.138018087,1.453287054,8.098438836,57.68880754,-34.10274547,23.00533147
179,1.748046875,-0.117044457,1.429097485,8.155635909,53.43760113,-29.66218717,26.26841796
180,1.7578125,-0.308974932,1.524898033,8.322969751,44.33342323,-33.74713548,32.7464121
181,1.767578125,-0.582736363,1.712637672,8.351245858,31.38007889,-41.27353152,41.16669341
182,1.77734375,-0.630719258,2.21742814,8.520619859,17.86371508,-45.68693912,52.49426192
183,1.787109375,-0.52815941,2.387999235,8.910410534,8.853073892,-44.43046541,59.91663649
184,1.796875,-0.385725492,2.003691495,9.304179573,-2.763005637,-39.51573855,63.26691266
185,1.806640625,0.084683587,1.868161352,9.590799569,-8.987311617,-36.60424125,60.09895213
186,1.81640625,0.587315647,1.889879788,9.920817204,-9.898211617,-33.50687593,54.79984081
187,1.826171875,1.147644818,1.886954441,9.93311269,-10.26708396,-30.5349209,50.49009236
188,1.8359375,1.446619996,1.878059854,9.978365009,-10.13305619,-33.52042509,51.0355949
189,1.845703125,2.015099968,2.030310627,10.1378516,-12.05211816,-34.97414299,48.0596378
190,1.85546875,2.606667704,2.098622723,10.25221558,-20.40183379,-29.05042201,44.21266042
191,1.865234375,2.647563731,2.131521485,10.17834877,-37.55053847,-27.99939257,47.02757098
192,1.875,2.586790172,2.189720364,10.03776273,-49.85397187,-30.44391185,49.42339943
193,1.884765625,2.318309519,2.379800005,9.893835689,-54.67632526,-32.0697262,50.75011657
194,1.89453125,2.111856146,2.468622556,10.13207346,-44.66698845,-30.370945,50.9308221
195,1.904296875,2.04954501,2.553044083,10.59456083,-30.67816714,-26.2868842,46.51363616
196,1.9140625,1.972574695,2.45374703,10.61104508,-25.55547718,-20.68370488,34.96201842
197,1.923828125,1.938136237,2.217721331,10.26297544,-21.93511695,-17.58517913,26.66345829
198,1.93359375,1.793098504,2.028639304,9.725029749,-10.51314119,-21.3468756,27.69607071
199,1.943359375,1.770715837,2.112600432,9.531971124,3.091350541,-28.84200266,33.29185459
200,1.953125,2.099533212,2.012492548,9.633685369,10.6397711,-30.68305169,35.5450139
201,1.962890625,2.381910124,1.736226174,9.621700058,18.66550156,-31.35904518,37.7429882
202,1.97265625,2.475256054,1.472152968,9.33336144,23.80102059,-36.27185296,47.93087347
203,1.982421875,2.571473721,1.325091019,9.24972768,23.14239888,-43.19621223,64.12746042
204,1.9921875,2.504553672,1.323602469,9.391205581,19.81415677,-45.48355426,75.76151554
205,2.001953125,2.338340024,1.359323092,9.503410582,19.97715212,-43.73276141,81.38208528
206,2.01171875,2.597604711,1.13355803,9.438308518,22.62408069,-42.74072509,83.49653868
207,2.021484375,2.958628339,0.53607996,9.10869406,25.37144831,-36.53980481,82.91533157
208,2.03125,3.000104278,0.377822745,9.032362576,27.03181577,-28.78466943,78.44757557
209,2.041015625,3.255238434,0.271559013,9.138884681,26.23680681,-24.0176813,71.30421351
210,2.05078125,3.182534478,0.449335573,9.398663254,23.27304001,-20.1454124,64.45504052
211,2.060546875,3.097224092,0.787378089,9.614477482,22.06928492,-16.28464785,51.87784826
212,2.0703125,3.25577396,0.699194941,9.517681017,20.38109777,-11.43494485,37.51264261
213,2.080078125,3.893049834,0.25558739,9.406243615,17.80597197,-14.35429154,34.09639981
214,2.08984375,4.267266033,-0.072130771,9.489899327,11.03556729,-26.84912636,40.37207418
215,2.099609375,4.288032389,-0.361539537,9.574715839,-0.18234506,-41.61609182,42.36049966
216,2.109375,4.325600847,-0.05626091,9.888102708,-6.098683514,-53.70282434,42.16469892
217,2.119140625,4.196424126,0.657516989,10.0759566,-13.35359455,-64.2609253,44.06474258
218,2.12890625,4.204691229,0.819970025,9.40466644,-18.06755996,-63.20436898,45.09290205
219,2.138671875,4.048505707,1.049248013,8.349604238,-20.74313928,-47.35488083,47.91024858
220,2.1484375,4.018560791,0.684179231,7.676855834,-13.51901253,-19.08773572,49.77293098
221,2.158203125,4.023190698,-0.130742464,8.33087447,12.02282206,5.490030134,43.14220129
222,2.16796875,3.969907353,-0.39288216,8.650799107,13.49883185,5.746173779,26.37143035
223,2.177734375,3.814783265,0.189902113,8.363070977,7.539947365,-1.958075084,3.674384902
224,2.1875,3.687645057,0.922851538,7.923174908,3.404311089,-1.04252759,-15.34370443
225,2.197265625,3.949092862,1.172541415,7.832459974,3.393798197,3.928626344,-23.0375219
226,2.20703125,4.046310768,1.247625783,8.118428732,2.271862231,10.25179917,-19.87518956
227,2.216796875,4.083562009,1.29962335,8.534610444,-4.061732921,5.541729961,-8.511752216
228,2.2265625,4.563814,0.901149404,8.669577295,-9.208593845,-7.287130398,2.089289253
229,2.236328125,5.158374686,0.505896539,8.703151067,-12.3751618,-18.78028535,15.48112682
230,2.24609375,5.217987019,0.483593833,8.548091833,-18.884885,-25.9821462,30.90642884
231,2.255859375,5.150202731,0.102333673,7.771942446,-22.32712916,-26.38273945,33.41657616
232,2.265625,4.870194769,0.323635706,7.610745972,-25.63361554,-14.63584005,28.5053656
233,2.275390625,4.612970609,0.886219933,8.059193734,-35.86822328,-5.007106102,22.56418287
234,2.28515625,4.721351083,0.956341899,8.569322668,-50.82616261,-6.483118427,21.80363368
235,2.294921875,4.609938968,0.797755285,8.801808924,-53.85605618,-4.999236359,24.93933633
236,2.3046875,4.12189139,0.618113969,8.657194478,-51.31177241,7.33855839,20.12192638
237,2.314453125,4.163551025,0.223309936,8.567701414,-45.59609523,11.98100438,17.32976683
238,2.32421875,4.45331463,-0.265715334,8.591509308,-41.68648434,15.42438267,15.32610851
239,2.333984375,4.088489008,0.193226912,8.962193175,-46.60245292,19.52861906,20.06513195
240,2.34375,3.611428658,0.562926085,9.261837035,-52.63451006,17.03549521,25.39236439
241,2.353515625,3.558286174,0.456140401,9.226639253,-46.1160112,17.16531646,24.50097767
242,2.36328125,3.34847925,0.294190007,8.996917325,-33.44309541,17.46488704,23.76517544
243,2.373046875,3.213668116,0.2721836,8.745012989,-24.84152867,10.62064622,24.094007
244,2.3828125,3.315499894,0.105977317,8.308110692,-21.69297262,9.62801155,20.77555699
245,2.392578125,3.001318862,0.215455137,8.10477793,-17.5498889,16.23495093,14.58928776
246,2.40234375,3.363005432,0.05755869,8.148955387,-9.946061956,20.48717742,2.798965189
247,2.412109375,3.784283853,-0.332922179,8.177563475,-1.387466604,25.17392419,-3.926492742
248,2.421875,3.821376129,-0.450500935,8.107322363,3.375067853,27.6881699,-8.026405753
249,2.431640625,4.05461634,-0.425021425,8.007842846,2.672333209,23.74231979,-9.52425856
250,2.44140625,4.00391577,-0.22841175,8.113899346,2.739004906,21.26671047,-6.32472784
251,2.451171875,3.853702096,-0.276530783,8.169182698,5.748947094,22.02029192,-4.085861898
252,2.4609375,3.883443014,-0.429843823,8.062065911,7.492500376,23.51644068,-4.44183243
253,2.470703125,3.383895119,-0.167253073,7.595492135,5.909991614,26.22080147,-4.132116374
254,2.48046875,2.769411406,0.180572982,6.921607974,5.357113502,29.10161303,-6.469098303
255,2.490234375,2.5810049,0.551143408,6.773390551,4.680519248,31.25965605,-5.046236799
256,2.5,2.330669896,0.745711602,6.931222792,4.485145854,31.39053736,2.911018039
257,2.509765625,2.576901293,0.037522311,6.524009341,5.090922042,30.59891075,3.775014954
258,2.51953125,2.850889947,-0.508567469,6.079893268,1.72201039,29.10562756,1.778486263
259,2.529296875,3.044629846,-1.330686699,5.394757104,-3.879618175,29.02601002,-4.234342803
260,2.5390625,3.277729358,-2.024314749,4.657030124,-10.57596979,33.53481137,-18.071267
261,2.548828125,3.732732097,-2.553760094,4.08059193,-24.62566594,33.11244452,-23.51180464
262,2.55859375,4.106161278,-3.50974171,3.231388504,-43.30393488,37.06058286,-16.62324346
263,2.568359375,2.881355211,-3.074717741,2.856782614,-69.71758746,39.00372839,2.124467227
264,2.578125,2.22578707,-3.612862336,2.812654449,-84.77308182,61.06260026,-7.314497056
265,2.587890625,2.562005338,-5.361654726,2.383439289,-95.23051103,84.9475874,-28.56766197
266,2.59765625,3.244886268,-6.448543227,1.66261834,-118.8760414,85.66886217,-36.89118631
267,2.607421875,3.587089642,-8.347717927,-0.465608069,-168.079869,75.53020506,-32.05908218
268,2.6171875,2.067900713,-9.074474849,-2.154259534,-232.7845431,57.52124505,-10.36966942
269,2.626953125,-1.134435412,-5.951119583,1.864190224,-297.2849639,42.87653041,23.54679419
270,2.63671875,-2.376006225,-6.43874032,5.82030674,-305.6720049,75.75689801,36.63429518
271,2.646484375,-0.17626396,-7.98442236,10.21729194,-258.6099565,153.0405957,2.784372842
272,2.65625,23.07027138,3.346304607,47.20558821,-367.6167655,-333.6071713,137.7271274
273,2.666015625,2.084907892,-19.36923442,6.64730374,37.3486183,-90.41598148,110.9194268
274,2.67578125,-8.723778923,8.588177426,-4.682641975,289.4940372,184.9562899,-64.36686268
275,2.685546875,-4.327483079,4.076962898,8.689874049,-71.00945317,13.2813504,17.69723837
276,2.6953125,7.808195752,-15.17154838,10.97926741,-140.6492246,-24.06407659,50.21290496
277,2.705078125,3.070740912,-2.641472886,13.25806835,-59.40408351,50.33882383,-25.8513541
278,2.71484375,2.196604963,-0.668117654,15.63406655,-80.91772313,82.45599192,-27.63915866
279,2.724609375,2.336795522,-2.796408917,14.4403514,-104.8057634,50.71317841,-15.28782705
280,2.734375,1.657139255,-1.496423663,11.54086928,-76.8514124,3.967463267,1.657543411
281,2.744140625,1.768977471,-1.796490618,10.50585395,-29.0559186,-1.333351853,16.4431151
282,2.75390625,2.203580937,-3.075979184,10.42149087,14.09156213,10.41054936,19.66665956
283,2.763671875,2.087655874,-3.351521079,10.20165548,33.02333158,14.92052995,17.31206551
284,2.7734375,2.251341624,-3.482747063,9.837062681,34.02692403,8.993933605,11.68296829
285,2.783203125,2.653829898,-3.698504201,9.550156524,23.63516522,0.600264905,6.850387857
286,2.79296875,2.63262415,-3.66715704,9.594190572,15.02461631,-2.310977506,3.773297528
287,2.802734375,2.653026588,-3.507355337,9.628084573,9.112305503,-1.964468103,1.770100074
288,2.8125,2.478565307,-3.108330358,9.672566667,6.927829358,0.424959538,2.075628483
289,2.822265625,2.454906731,-3.146214564,9.522535162,6.43568676,1.160380604,5.468519402
290,2.83203125,2.580395403,-3.200498537,9.472060257,8.358461545,1.949335673,8.133741977
291,2.841796875,2.60782843,-3.329893552,9.418604217,10.88137673,3.923281578,9.449023526
292,2.8515625,2.560993544,-3.491734634,9.4837846,13.76864326,5.290483364,11.13419742
293,2.861328125,2.442975315,-3.678866821,9.450474078,13.95483211,3.882243568,12.05558299
294,2.87109375,2.470176145,-3.896637351,9.193982927,12.15829716,1.623992631,10.2495373
295,2.880859375,2.513076289,-3.997529357,8.819132225,10.90370008,0.124771248,7.030081969
296,2.890625,2.670243346,-3.971008575,8.752583929,10.60616291,0.090679328,4.684275718
297,2.900390625,2.801023361,-3.913089139,8.876274701,9.875713757,1.669072774,3.945750963
298,2.91015625,2.744568953,-3.821532617,8.987218241,9.080658313,4.159490704,3.148377319
299,2.919921875,2.690254839,-3.811219319,8.918538819,9.19364784,6.058001496,2.353610363
300,2.9296875,2.668916377,-3.865856178,8.733539632,11.5376326,8.678323559,0.647488818
301,2.939453125,2.571670635,-3.835855017,8.791696651,14.30804197,10.26472528,-0.504841734
302,2.94921875,2.439333329,-3.721756215,8.93976954,14.24839953,10.20620723,-0.75210522
303,2.958984375,2.338997759,-3.725181787,9.133149346,11.77797675,9.496131949,-1.014019418
304,2.96875,2.340925172,-3.753888582,9.192798833,8.165243476,7.978206351,-1.53136483
305,2.978515625,2.246631367,-3.70718337,9.10906152,5.451807296,7.629544095,-1.854959118
306,2.98828125,2.109768994,-3.593012182,9.181665794,5.69186345,7.686239726,-1.236644729
307,2.998046875,2.043381276,-3.572988835,9.211788545,6.478579768,6.960376313,-0.494866377
308,3.0078125,2.159011732,-3.643872057,9.230094962,7.035759057,3.735809777,0.298732333
309,3.017578125,2.282286835,-3.583478552,9.490497617,6.619184704,2.511867251,0.292336184
310,3.02734375,2.270588515,-3.518825017,9.637498001,3.177612521,3.191702601,-0.586617952
311,3.037109375,2.355339963,-3.627497646,9.538780259,-1.103527606,2.698283101,-1.288899851
312,3.046875,2.498429145,-3.638988951,9.293912195,-1.588777162,3.680453472,-2.583433784
313,3.056640625,2.42608816,-3.518520698,9.24850306,0.814719975,5.409806153,-1.331304659
314,3.06640625,2.458932965,-3.52376683,9.366566504,4.000307122,7.513087102,0.296273004
315,3.076171875,2.359395059,-3.448352193,9.541538154,7.069071169,9.140348816,0.996269248
316,3.0859375,2.292598939,-3.433118504,9.694404059,8.578306272,8.604030511,2.174237337
317,3.095703125,2.368536449,-3.611008571,9.946366684,9.910425532,6.958744818,4.14938845
318,3.10546875,2.464818807,-3.621933785,10.27449868,9.729491602,7.33562455,3.03937829
319,3.115234375,2.604308545,-3.657314739,10.36743083,7.004306959,10.24074797,0.5062558
320,3.125,2.827863798,-3.841991731,10.4640282,4.020297701,16.41129792,-0.968138604
321,3.134765625,2.722544161,-3.833417892,10.7750263,2.708187588,26.19621969,-2.112933496
322,3.14453125,2.942045773,-3.783951379,11.38242679,4.007990827,32.94554095,-4.673699036
323,3.154296875,4.022608164,-4.671072825,12.52009839,4.568309994,24.62555225,8.439877036
324,3.1640625,3.645629468,-4.751954877,12.87077501,6.218919019,6.804602473,10.54548133
325,3.173828125,3.607748708,-3.972509778,12.90854757,15.11662444,-2.932915954,-12.88426011
326,3.18359375,3.080344047,-3.903069966,12.41359467,23.14422936,-17.76365453,-7.527700241
327,3.193359375,3.027081087,-4.069567677,12.22890997,27.92511112,-19.46020087,-10.59345855
328,3.203125,3.0142566,-3.787503953,12.64657976,28.06793634,-22.75223564,-14.30547624
329,3.212890625,2.913554037,-3.604543424,12.75528492,28.57989713,-27.93918087,-16.85010721
330,3.22265625,2.675924055,-3.109074353,12.78795952,30.5916608,-31.78048487,-17.96352074
331,3.232421875,2.528740493,-2.81317773,12.91512941,34.47069386,-35.48937508,-17.40129425
332,3.2421875,2.511916614,-2.882217275,12.76349625,37.80030459,-37.6166182,-17.5766512
333,3.251953125,2.34115118,-2.729288831,12.38000125,39.75063288,-41.34160172,-18.38153387
334,3.26171875,2.192289739,-2.454832348,12.20347515,40.08007116,-48.06164019,-15.81229652
335,3.271484375,2.117106712,-2.420326148,12.0422252,39.85648576,-52.9137101,-12.6842091
336,3.28125,2.15993888,-2.413745575,12.03266676,39.328368,-55.96096373,-12.94427214
337,3.291015625,1.97359599,-1.990674467,12.15673963,39.1024478,-58.68263277,-14.3737301
338,3.30078125,2.183524983,-1.948136569,11.96485974,41.95054036,-61.25104308,-14.05958767
339,3.310546875,2.239958351,-2.154333487,11.49587141,45.25581495,-59.46998494,-10.95199404
340,3.3203125,2.139107324,-2.10751236,11.22110958,46.7548375,-57.56175772,-10.62921549
341,3.330078125,2.229240384,-1.922357574,11.04220548,47.36101315,-57.97071293,-11.05934222
342,3.33984375,2.352642751,-2.031531279,10.71949787,48.46179625,-62.38250615,-7.24434768
343,3.349609375,2.355674861,-2.143794369,10.13972448,48.96680206,-68.06962294,-4.362174565
344,3.359375,2.186955472,-2.076888806,9.593229308,48.1367004,-71.8200565,-2.528828647
345,3.369140625,2.003395046,-1.849680203,8.955602564,49.89472096,-73.30227492,-3.018458434
346,3.37890625,2.278876938,-1.745880862,8.47223384,50.98107706,-72.90177369,-4.183564336
347,3.388671875,2.399473559,-1.604153036,8.292042294,51.44419527,-68.88252405,-3.92045526
348,3.3984375,2.763731572,-1.769240825,8.246782406,54.50943231,-65.83023275,-5.127862187
349,3.408203125,3.042717884,-2.011962104,7.882609256,57.03716581,-63.75316885,-6.89661724
350,3.41796875,3.092584864,-1.981490733,7.176802234,58.35880932,-61.94445007,-8.425747934
351,3.427734375,3.126176103,-1.881518453,6.57542702,57.74171818,-58.21158555,-10.88347367
352,3.4375,3.329865585,-1.757651383,6.343849434,55.48987979,-53.66840246,-12.48314235
353,3.447265625,3.608043433,-1.711302529,6.371245893,51.72391677,-48.56615394,-12.48474721
354,3.45703125,3.885409607,-1.801114193,6.239207229,49.03751282,-41.66544689,-13.58494331
355,3.466796875,3.882012114,-1.662482903,6.224070476,44.74594335,-40.60129874,-12.55458744
356,3.4765625,4.256444291,-1.751253192,6.193485747,38.89662859,-41.49628177,-12.64943799
357,3.486328125,4.276225301,-1.715664311,6.041716132,36.04862893,-38.54773808,-14.07264927
358,3.49609375,4.15653889,-1.32693796,5.999234456,33.6737309,-33.71025049,-15.11673117
359,3.505859375,4.178371316,-1.217353837,6.192341941,31.23077695,-28.30543453,-13.25983517
360,3.515625,4.169811764,-1.033292216,6.461451536,30.4675008,-20.4231677,-12.43439792
361,3.525390625,4.221420013,-1.077020023,6.535651085,29.77948013,-14.94544542,-13.59096422
362,3.53515625,4.286306265,-0.953683287,6.667146284,26.87474882,-12.66359512,-15.26353885
363,3.544921875,4.400405566,-0.90270232,6.788633227,22.89176519,-12.67520371,-15.22235282
364,3.5546875,4.557035051,-0.904858585,6.812388784,19.62974276,-12.19402554,-14.68224217
365,3.564453125,4.788425126,-1.032290952,6.851014294,17.15277379,-11.31438483,-15.55554601
366,3.57421875,4.873754343,-1.047800407,6.85381258,12.62962974,-12.32321706,-14.47189987
367,3.583984375,4.678055864,-0.660419166,6.816020954,8.281489636,-12.93606727,-10.98013017
368,3.59375,4.353014347,-0.371621409,6.841820434,7.481012032,-10.93313076,-7.275973703
369,3.603515625,4.443060584,-0.420633726,6.748742826,10.76766684,-3.552534238,-8.89901095
370,3.61328125,4.422067701,-0.460929617,6.492651179,13.3283966,4.30581804,-10.83255821
371,3.623046875,4.274264354,-0.411050473,6.04562845,12.82892439,8.015471374,-11.43910845
372,3.6328125,4.00341989,-0.283034382,5.700388391,10.58483057,10.03044917,-10.51830442
373,3.642578125,3.869683998,-0.133046965,5.632995825,9.193846079,9.790057615,-8.120438773
374,3.65234375,3.77459422,-0.229666755,5.361697404,7.256306698,9.511140824,-3.628109385
375,3.662109375,3.434303564,-0.186702881,4.942991174,4.578331661,13.76285351,-2.269937687
376,3.671875,3.093427857,0.164444861,4.901244434,2.799870492,20.07080741,-3.305842176
377,3.681640625,3.055518681,0.157804571,4.851852376,2.772382039,26.10274147,-4.086957518
378,3.69140625,3.114396238,0.123536832,4.906963589,0.88120074,29.94536855,-2.911231507
379,3.701171875,3.355576545,0.110622983,5.211673409,-0.458372039,31.9715385,-1.615611322
380,3.7109375,3.68708266,-0.323981624,4.944138996,0.376349737,34.17953745,-1.850398703
381,3.720703125,3.793114837,-0.542813838,4.52501659,-1.141670411,35.90767218,-1.235304018
382,3.73046875,3.748475625,-0.58516863,4.228866372,-3.922540087,35.75212698,2.019353917
383,3.740234375,3.161773108,-0.866103441,3.398014928,-4.670404494,40.34770891,3.018506631
384,3.75,2.61022458,-0.953979669,2.53659473,-6.132838711,44.31373596,0.18711846
385,3.759765625,2.784358951,-1.235878771,2.173285145,-11.21823736,47.87845414,-0.320118497
386,3.76953125,3.051680959,-1.91332237,1.958721494,-19.22527163,56.74644115,-1.070677277
387,3.779296875,3.471961877,-2.867696782,2.132987501,-36.96530381,54.28280122,4.443263286
388,3.7890625,3.604009398,-4.021160253,1.981678991,-63.08206221,48.91300795,11.26120875
389,3.798828125,2.382858302,-4.14770983,1.79276859,-96.18951072,39.82484747,22.78031725
390,3.80859375,1.034818177,-4.215135133,1.34057067,-119.0758474,42.37440503,24.09044089
391,3.818359375,-1.877512003,-4.153350975,-0.486085817,-141.4276697,63.83834865,12.94633727
392,3.828125,-3.303987725,-4.72841578,-2.52969973,-166.220495,94.51690206,-8.048408137
393,3.837890625,-2.411463544,-5.95439661,-3.122018088,-211.6473934,145.2231404,-17.42040775
394,3.84765625,-1.996968853,-7.816844444,-1.477905811,-287.1494832,197.7841335,15.80959561
395,3.857421875,-2.734696949,-10.53391983,5.659375385,-319.1731315,269.235721,50.50073159
396,3.8671875,15.42901596,-20.60369108,39.91014964,-253.0651445,110.9609966,53.68283928
397,3.876953125,-8.784251511,-25.40351752,6.973058965,-64.672406,86.24509701,130.2563989
398,3.88671875,-3.817746939,5.312495403,-9.573361191,220.1076681,22.96445552,-8.224856173
399,3.896484375,-1.878948813,10.22703415,8.093044102,-22.99549849,-39.3531691,-33.07036533
400,3.90625,4.449010133,-15.39762514,9.989303533,-181.3871441,18.48695903,74.02499437
401,3.916015625,5.937056731,-11.77721392,13.76593361,-36.48031643,40.83533572,5.447696266
402,3.92578125,0.489282602,-1.027116706,16.90541313,10.45180733,89.94541561,-49.96842537
403,3.935546875,1.568589867,-3.185301338,17.62802882,-42.10479867,110.9046803,-41.83761101
404,3.9453125,1.607475808,-3.885574928,15.09569853,-42.70496183,80.99960961,-30.84077247
405,3.955078125,1.77573048,-1.62735373,13.5769128,-8.382387632,39.32120796,-11.3158411
406,3.96484375,-0.420766789,-2.569440901,12.19478295,20.90068344,9.821714736,27.22557748
407,3.974609375,-0.107347568,-2.946327441,11.00141647,31.92112199,7.110298176,13.20780997
408,3.984375,1.994481666,-2.831674887,9.641938296,54.36807901,0.864476243,-3.046016538
409,3.994140625,2.658823551,-3.246951284,9.301090335,68.6444674,-11.73604407,12.03547934
410,4.00390625,2.776720512,-3.50426836,9.564433678,62.56573322,-19.23853569,23.3288274
411,4.013671875,2.635029866,-3.585985535,9.842207459,46.58097493,-22.32195043,27.55417389
412,4.0234375,2.636744787,-3.858416745,9.99970496,31.25064242,-21.04483873,25.13569836
413,4.033203125,2.196073204,-3.794996611,9.86577359,19.4580107,-12.42913256,15.60506176
414,4.04296875,1.922189113,-3.430416402,9.696410369,6.048960467,-6.455325136,5.87186908
415,4.052734375,1.883789007,-3.276946141,9.520529033,-4.937598142,-3.653100201,-0.035226344
416,4.0625,1.689979978,-3.161990553,9.581279154,-15.68642304,0.135003573,-6.5545562
417,4.072265625,1.539285842,-3.054775356,9.491322572,-19.97560809,2.609894276,-10.82448474
418,4.08203125,1.441014574,-2.745156052,9.181926826,-20.21185853,2.268569182,-12.8626025
419,4.091796875,1.504313653,-2.700576432,8.796509306,-17.01295913,1.25746572,-10.32046022
420,4.1015625,1.68580646,-2.832101298,8.832836643,-12.48499063,-1.360948149,-4.137463691
421,4.111328125,1.875925273,-2.990056047,9.079690482,-6.689818796,-3.893230963,1.867277222
422,4.12109375,1.848386235,-3.082887108,9.263491428,-0.297339943,-4.31556978,5.599952946
423,4.130859375,1.767072379,-3.162999374,9.204046328,3.745790872,-4.68385602,6.729834457
424,4.140625,1.823538978,-3.285603768,8.99008936,8.395772406,-5.202599161,6.32010042
425,4.150390625,1.955977547,-3.356709447,8.944741937,10.92453087,-3.939005461,6.214108687
426,4.16015625,2.011393511,-3.445910706,9.192191792,11.15131503,-1.020501658,6.595552766
427,4.169921875,1.941943913,-3.430653271,9.43938428,10.04683768,3.29747967,5.186060577
428,4.1796875,1.776184081,-3.347151646,9.550437435,7.985325193,5.834399734,3.765458413
429,4.189453125,1.77330016,-3.423561721,9.479172627,5.507207386,7.020666146,2.708149716
430,4.19921875,1.799846055,-3.419130403,9.349383659,4.903719584,7.578328717,1.164778601
431,4.208984375,1.835702164,-3.374234008,9.412000997,4.906023454,7.407720242,0.300559593
432,4.21875,1.873290159,-3.424923807,9.387311904,5.084399603,7.831620572,0.67308041
433,4.228515625,1.781395032,-3.363920488,9.340963345,6.290514368,7.784033891,1.295995158
434,4.23828125,1.753900889,-3.270352334,9.300954062,6.722122679,5.8446186,1.353156884
435,4.248046875,1.728396983,-3.215042285,9.268943572,4.922930848,3.564371423,1.15091942
436,4.2578125,1.691854964,-3.271902157,9.39998907,3.055271274,2.669998868,1.816786945
437,4.267578125,1.721737341,-3.31773595,9.587417634,2.450015309,3.086568157,1.691749285
438,4.27734375,1.778797468,-3.287468477,9.659837071,1.058522997,4.10651978,0.88619823
439,4.287109375,1.721079333,-3.35835847,9.680367679,0.27323111,4.401584394,0.513059555
440,4.296875,1.620888596,-3.39282769,9.725927683,1.303611127,3.888738061,-0.655509932
441,4.306640625,1.565587906,-3.203313001,9.759046574,2.948577145,1.076516889,-1.890606169
442,4.31640625,1.61119406,-3.098830904,9.926354963,4.901054466,-3.452630732,-1.711259773
443,4.326171875,1.75472363,-3.186842902,10.0913063,7.99152254,-6.07159833,-1.827866773
444,4.3359375,1.829486008,-3.261964065,10.26532646,10.34608216,-6.082504437,-2.371004081
445,4.345703125,1.861522698,-3.322167463,10.48140197,11.84851716,-4.398935159,-3.406133984
446,4.35546875,1.910802137,-3.313317978,10.70761682,12.98349184,-1.059495505,-5.917915209
447,4.365234375,2.100974647,-3.196505108,11.00915891,13.02067781,4.75647925,-8.611789616
448,4.375,2.182819597,-3.250230511,11.26520668,11.53694212,12.52947672,-9.641085548
449,4.384765625,2.474144352,-3.476598266,12.40048315,11.44557818,19.54271289,-11.09768911
450,4.39453125,3.685525887,-4.950863952,13.19867996,10.01332033,21.79852027,-26.70436777
451,4.404296875,3.952360893,-3.989389146,14.35717475,20.70810566,11.54176015,-40.93511116
452,4.4140625,2.775423537,-3.421259341,14.27889143,34.98496885,-15.09863827,-22.2011303
453,4.423828125,2.913218263,-3.855544978,13.67397244,43.69051095,-16.45180857,-27.40462616
454,4.43359375,3.207527044,-3.818993453,13.83603676,42.76268289,-23.49184701,-29.77803246
455,4.443359375,2.976866172,-3.323627183,13.9206003,42.68284241,-31.6283376,-30.91712712
456,4.453125,2.735477805,-2.992964152,13.89593217,47.15264249,-31.19492489,-34.47058417
457,4.462890625,2.491978605,-2.827054705,13.25737897,53.43276046,-31.36083937,-36.28954989
458,4.47265625,2.178865698,-2.707989566,12.72366361,55.21327156,-39.29573367,-31.92811876
459,4.482421875,1.885415363,-2.266740001,12.99106725,54.02752306,-45.21259057,-27.82166256
460,4.4921875,1.932018164,-2.059528083,13.14882448,53.62408443,-50.69047162,-23.64797249
461,4.501953125,1.907231618,-1.949263659,13.04945892,51.90075498,-57.89933373,-19.17864037
462,4.51171875,1.831011303,-1.852585735,12.63437832,50.73165068,-66.6500805,-16.87091661
463,4.521484375,1.683134172,-1.616311155,12.00363527,52.26375104,-70.85396796,-18.79000435
464,4.53125,1.68835161,-1.46101197,11.53768129,54.39219537,-73.9675225,-19.59184584
465,4.541015625,1.795462039,-1.321452478,11.0934098,57.06124601,-77.59761881,-17.49335149
466,4.55078125,1.636323335,-1.273781417,10.45777313,60.55527963,-77.14029467,-15.19134039
467,4.560546875,1.954951945,-1.450099034,9.747727787,64.28456973,-73.31496059,-18.67511846
468,4.5703125,2.050287212,-1.303208318,9.29383748,62.23215502,-73.61117951,-17.51461292
469,4.580078125,1.844225616,-0.781869529,9.172627735,61.08559288,-74.70713845,-14.5015827
470,4.58984375,2.084839803,-0.804246483,8.836126691,63.2402705,-71.33666649,-13.49177872
471,4.599609375,2.405871063,-1.152663653,8.370772725,62.86757692,-70.22994107,-10.40542499
472,4.609375,2.444335245,-1.141229036,8.247898796,59.06866097,-71.98348746,-7.284930702
473,4.619140625,2.59221138,-1.042921318,8.339971882,53.22401585,-75.05276871,-4.056144501
474,4.62890625,2.86070199,-1.084816098,8.150173349,50.5071827,-75.11341746,-3.206675148
475,4.638671875,2.762776706,-1.038010048,7.689113957,48.75378224,-75.17363365,-1.118486824
476,4.6484375,2.711010932,-0.769676228,7.581199347,47.00047469,-74.85371646,-0.139367346
477,4.658203125,3.138018268,-0.878260262,7.374265845,48.42266251,-68.65719801,-2.146230847
478,4.66796875,3.332799368,-1.057669746,6.779752465,48.51530742,-62.37474866,-3.295988287
479,4.677734375,3.47190113,-0.954431819,6.642951539,45.00910727,-61.28888732,-2.816717783
480,4.6875,3.813031264,-1.004533948,6.755260623,42.57421997,-56.25987956,-4.600702671
481,4.697265625,3.833194538,-0.91400136,6.649330989,41.95109047,-52.19764222,-4.466401349
482,4.70703125,3.905351691,-0.960329079,6.190649111,40.90477848,-48.02305366,-4.210506584
483,4.716796875,3.81456656,-0.908843729,5.73891533,36.73036345,-46.79628006,-1.575084984
484,4.7265625,3.699419203,-0.491529387,5.858465679,33.16769485,-47.38657106,1.303914425
485,4.736328125,3.74265627,-0.494489233,5.68170326,33.01111149,-39.46638646,0.158571565
486,4.74609375,3.599339605,-0.430353733,5.368759347,32.25168751,-31.6786824,-0.990328978
487,4.755859375,3.432196493,-0.031420441,5.347218872,28.2561348,-29.70784662,0.846649672
488,4.765625,3.527554936,-0.06376179,5.116966017,24.7826708,-22.65316824,0.791648346
489,4.775390625,3.423629782,-0.05753188,4.949300986,22.33697638,-15.94326575,0.617351335
490,4.78515625,3.583209577,0.097927183,5.280544462,19.83660956,-9.819780901,-1.22485248
491,4.794921875,4.085869935,-0.195720958,5.398851497,17.33695185,-4.133016917,-2.266622095
492,4.8046875,3.998730212,-0.182549245,5.198016842,11.76616737,-0.978258714,-0.125177077
493,4.814453125,3.887915855,0.134376834,5.138407593,7.473198248,0.200756426,1.399078221
494,4.82421875,4.133418549,-0.14610855,4.735029255,5.630675784,6.729745687,1.905823207
495,4.833984375,4.212993855,-0.352650955,4.468874974,1.251867034,13.32382091,3.201713903
496,4.84375,4.22880715,-0.357681742,4.726055623,-6.837054598,12.77382393,6.057600467
497,4.853515625,4.313071786,-0.320681885,5.25583044,-10.99964063,12.32816289,6.466484871
498,4.86328125,4.457416581,-0.200883423,5.807237456,-11.06446058,13.61778272,5.48362193
499,4.873046875,4.321863697,-0.225301775,5.79828842,-8.675009573,19.21417248,4.158213139
500,4.8828125,4.319107305,-0.156019804,6.147991916,-5.862772438,25.58011284,0.493493186
501,4.892578125,4.577818765,-0.345977566,6.38387943,-4.672310929,30.3346685,-3.123473326
502,4.90234375,4.596857977,-0.370120494,6.292505377,-3.119733814,35.3491537,-7.477936444
503,4.912109375,4.800970292,-0.442191059,6.096309975,-0.351584943,38.11816088,-10.60019505
504,4.921875,4.940448051,-0.952957824,5.481445408,1.51544602,38.94410182,-10.71110818
505,4.931640625,4.674924926,-1.083036382,4.923117784,-0.22437276,37.28918871,-12.0829457
506,4.94140625,4.590269345,-1.120048687,4.525403857,-1.9017188,35.58977078,-14.56500821
507,4.951171875,4.449253866,-1.50983863,3.59376027,-2.984287747,35.66321482,-16.9144735
508,4.9609375,4.015338124,-1.852543785,2.290512373,-5.722224163,41.05508908,-18.94550705
509,4.970703125,3.533850584,-2.830002357,-0.204879705,-17.07469485,41.41622307,-15.85646458
510,4.98046875,2.473359883,-3.997827071,-2.634815535,-54.03149766,15.47352431,-0.097552553
511,4.990234375,1.184100446,-4.383625955,-4.706469503,-110.2066895,0.575178065,1.104259071
512,5,-0.12211875,-4.537539429,-5.925332513,-171.0065719,7.727246492,-1.650757196
513,5.009765625,-0.391802011,-5.432231748,-5.908683035,-221.9343894,45.3481741,-4.372483535
514,5.01953125,-0.814806215,-6.394140422,-5.649991909,-253.2084772,96.77607772,1.074261583
515,5.029296875,-4.209748572,-7.754620737,-6.997019851,-303.7739853,173.5094757,29.82811023
516,5.0390625,-7.610677478,-7.849261552,-3.893939612,-365.7470607,247.8643469,66.22613307
517,5.048828125,2.690970672,-4.865531322,13.34206255,-372.6338499,356.8728205,83.16399146
518,5.05859375,-7.84955574,-23.36373743,23.39447495,57.88976925,965.0050042,6.555243881
519,5.068359375,-16.57238999,-8.966648945,-0.173869511,346.9817529,459.3035815,134.1619683
520,5.078125,-6.119648287,14.93701099,10.97821117,166.6181282,-51.48999214,-69.58331495
521,5.087890625,0.132906328,-4.829656016,8.068572508,-213.4527719,-63.23508578,-72.50204097
522,5.09765625,6.01185102,-15.25179014,9.520067179,-183.8919088,-48.63869335,-2.283087391
523,5.107421875,-0.072395543,-4.503046346,16.69873497,-129.3192893,3.833204274,-53.26839064
524,5.1171875,-2.656461275,-0.513260285,17.56032396,-143.0318274,29.90785039,-47.69621062
525,5.126953125,-1.487080382,-2.392822554,16.01474786,-120.0956978,39.11022351,-5.413203631
526,5.13671875,-2.278525814,0.385109665,14.67606166,-65.45668156,15.2885637,11.68728161
527,5.146484375,-2.755153983,-1.180480402,14.28188936,-11.66405404,-21.46721595,30.52740594
528,5.15625,-0.550661354,-2.687148566,12.38382099,7.81975649,-1.438479154,14.96660614
529,5.166015625,0.810271961,-2.700948816,11.43012414,44.94742102,11.58082785,5.949356763
530,5.17578125,1.575706116,-3.454522862,11.15646794,64.8813677,6.042716501,10.22731772
531,5.185546875,2.015555453,-3.773520232,10.75416875,69.10712113,-7.530957798,12.05247865
532,5.1953125,2.152501041,-3.792047435,10.15573106,56.82632798,-25.53898731,9.459231975
533,5.205078125,2.459751274,-4.001730995,9.974725071,41.81545446,-41.06178921,8.341123451
534,5.21484375,2.293325967,-3.777230997,9.957391457,29.19316696,-37.71028203,4.586628701
535,5.224609375,1.840281454,-3.233393338,9.917986021,16.16281971,-24.8194672,1.048274172
536,5.234375,1.521547042,-2.827583175,9.790041998,2.111865284,-13.99044672,0.150108014
537,5.244140625,1.288327282,-2.680994213,9.628325156,-9.270292419,-6.161350969,-0.251272149
538,5.25390625,0.957881486,-2.659752989,9.825648458,-14.95777612,-2.975767502,-0.516167013
539,5.263671875,0.812051492,-2.729443858,9.935694684,-16.04301744,-2.98767527,-1.076979276
540,5.2734375,0.798615956,-2.681455698,9.814257349,-13.79707495,-5.366712263,-2.060728164
541,5.283203125,0.843162099,-2.555404172,9.606086184,-9.790167046,-10.53136219,-1.626283693
542,5.29296875,0.912718194,-2.530056646,9.452243835,-5.72303145,-16.58105944,1.334616926
543,5.302734375,0.962858046,-2.53789806,9.33456023,-1.189529315,-19.09043325,4.001782333
544,5.3125,0.999148711,-2.519259433,9.166704525,3.454813316,-18.89713217,4.889951715
545,5.322265625,1.074364856,-2.603919459,9.157013107,7.182387868,-16.66668527,6.82919795
546,5.33203125,1.055319109,-2.809164423,9.322307319,8.847075038,-12.10038312,8.704280559
547,5.341796875,1.064720492,-3.036297369,9.433912069,7.867258259,-9.454454483,9.633773655
548,5.3515625,1.220156499,-3.439838907,9.384807698,3.930824687,-6.228113042,8.699443898
549,5.361328125,1.125012692,-3.448092294,9.413231826,1.371137464,-0.09725265,6.240076994
550,5.37109375,0.942343499,-3.388254712,9.5460666,-0.219524616,5.131929405,4.276060065
551,5.380859375,0.850341915,-3.320089799,9.558501019,-1.067930223,6.604284881,2.241104225
552,5.390625,0.799159533,-3.257241813,9.401302676,-0.455446801,5.299140829,0.635813981
553,5.400390625,0.910062007,-3.117778046,9.280113977,2.032951701,2.364394075,0.576704265
554,5.41015625,1.011198784,-2.973415634,9.26491995,5.662552118,0.291547095,1.266715205
555,5.419921875,1.072996906,-2.938437113,9.356095295,7.838887314,-0.774276938,2.014450363
556,5.4296875,1.09912567,-2.941184059,9.344390613,8.085331738,-2.118922634,2.812989833
557,5.439453125,1.12566985,-2.900927881,9.329291039,6.64116121,-3.12310838,3.17220912
558,5.44921875,1.227056678,-2.950120276,9.415452049,4.105361095,-2.737860568,2.790391064
559,5.458984375,1.219371972,-2.983476846,9.498788522,1.619470839,0.027969729,1.861911908
560,5.46875,1.169066311,-2.982805695,9.649660127,-1.045919634,2.360593596,1.239446186
561,5.478515625,1.147712204,-2.963404895,9.705773287,-2.625133614,4.776094876,0.437783532
562,5.48828125,0.94561457,-2.915261692,9.94735361,-2.272450234,6.91798395,-0.046463731
563,5.498046875,0.822472213,-2.851457933,10.03769068,-1.727607767,6.62619523,-0.229744526
564,5.5078125,0.842387653,-2.765709892,10.00026491,-1.350984626,3.655181338,-0.423206088
565,5.517578125,0.913773425,-2.769072273,9.93908727,-0.492645138,0.684383733,0.002691836
566,5.52734375,1.001230738,-2.844330393,9.8348494,1.442949556,-0.317346872,0.194217512
567,5.537109375,0.944903713,-2.779041419,9.819082026,3.552947471,-0.042885651,0.699518899
568,5.546875,0.905604737,-2.680531313,9.771869742,4.158172467,-0.586166065,1.194246174
569,5.556640625,1.083612718,-2.754630809,9.563911906,3.38006467,-2.191673194,1.924926656
570,5.56640625,1.183079098,-2.794222809,9.527211953,2.952311615,-1.168750971,2.173039776
571,5.576171875,1.063377918,-2.809340759,9.808113236,2.401663037,0.402744007,2.175675515
572,5.5859375,0.989193795,-2.822677538,9.959304144,1.312489044,0.990551494,2.233812446
573,5.595703125,0.974243235,-2.908483963,9.923630033,0.042492592,1.576797357,2.1676382
574,5.60546875,0.942777762,-3.003611905,9.82213747,-0.316619312,1.088825851,1.793966083
575,5.615234375,0.949825388,-3.02998381,9.763823106,0.348954163,0.989272912,1.056778407
576,5.625,0.969086249,-3.056508009,9.589968588,1.014660794,1.017277108,-0.111783817
577,5.634765625,0.984155472,-2.989804427,9.52469954,1.679258841,1.099330764,-0.786656599
578,5.64453125,0.953382969,-2.977435563,9.531452143,2.702457853,1.665125881,-0.779432605
579,5.654296875,0.908420901,-2.99352903,9.428043285,3.547091824,1.868684212,-1.206204371
580,5.6640625,0.924984666,-3.003312578,9.416500878,4.153645263,1.336401919,-1.513381209
581,5.673828125,0.913726167,-2.92909173,9.445359385,5.246398917,-0.043725539,-1.450878116
582,5.68359375,0.96511753,-2.772098689,9.42982227,4.893077641,-1.874758865,-1.459060369
583,5.693359375,0.970021343,-2.750664069,9.445816801,3.749643076,-2.69191528,-1.035957332
584,5.703125,0.971395482,-2.800883428,9.623896127,3.74793685,-2.579586312,-0.357003108
585,5.712890625,1.004322305,-2.818068587,9.676217088,4.222713734,-0.929682505,-0.287138344
586,5.72265625,1.00433626,-2.827621453,9.641074005,4.335192321,0.964598241,-0.773480641
587,5.732421875,0.951874506,-2.853182323,9.634575078,3.547280715,1.807020668,-1.144729427
588,5.7421875,0.975182188,-2.922784033,9.560808139,2.88488435,1.553512527,-1.272390721
589,5.751953125,1.003905119,-2.892120027,9.581315012,2.105107494,0.629688419,-1.464674353
590,5.76171875,0.994057411,-2.865729043,9.783478792,0.535610617,0.659769696,-1.287567614
591,5.771484375,0.924483843,-2.914960401,9.867150158,-1.156899454,1.174222157,-1.109408516
592,5.78125,0.860676297,-2.899739789,9.812494433,-1.522430597,1.960880852,-1.293616098
593,5.791015625,0.813320817,-2.894306281,9.784027985,-1.101663456,2.397579464,-1.536689516
594,5.80078125,0.837377319,-2.856409406,9.799640371,-0.556560878,1.918262084,-1.350490683
595,5.810546875,0.836757711,-2.892254048,9.894833462,0.045840025,1.920647464,-0.730503656
596,5.8203125,0.862053914,-2.964289004,9.94375471,0.351319969,1.072086687,-0.546819832
597,5.830078125,0.916104451,-3.019988918,9.95693086,0.662534804,-0.930315233,-0.490495636
598,5.83984375,0.999014031,-3.068903769,9.868561837,0.912769466,-2.622945952,-0.926914727
599,5.849609375,0.985508684,-3.020917832,9.770706803,1.943133999,-3.199147848,-1.910639406
600,5.859375,1.00713508,-3.01165003,9.713902536,3.033518763,-3.840158787,-2.52415071
601,5.869140625,1.043823743,-2.907018936,9.68546732,3.879434725,-3.815669023,-3.198292167
602,5.87890625,1.098825537,-2.874320441,9.658780873,4.058439485,-3.323337075,-3.380725749
603,5.888671875,0.99233072,-2.820297564,9.709276778,4.172940147,-1.918134635,-3.683693152
604,5.8984375,0.952101454,-2.781525268,9.786132271,5.310113396,-0.014722687,-3.486167094
605,5.908203125,0.913949693,-2.776231644,9.85672199,5.789563041,0.725456127,-3.604506939
606,5.91796875,0.902036655,-2.766516482,9.901284869,4.768519259,-0.201860161,-3.859730585
607,5.927734375,0.920768688,-2.800222501,9.88324632,3.57095728,-2.296423345,-3.503035991
608,5.9375,0.911449776,-2.80486294,9.807887639,3.272141202,-2.973376991,-3.321859914
609,5.947265625,0.888000675,-2.794973924,9.739242344,3.390466153,-2.611378743,-2.949862856
610,5.95703125,0.928579014,-2.814628484,9.605328588,3.806284938,-1.140782041,-3.189366484
611,5.966796875,0.906702995,-2.878835769,9.571486501,3.977430544,0.993623345,-3.366130401
612,5.9765625,0.815953344,-2.903884005,9.66634947,3.97095557,2.457474225,-3.669515358
613,5.986328125,0.749534214,-2.879085002,9.722297569,3.368074695,2.577569923,-4.350767342
614,5.99609375,0.774839146,-2.948731352,9.775877685,2.404406658,2.448734208,-5.096426833
615,6.005859375,0.764260059,-3.044168365,9.837126631,1.441116405,2.196571404,-5.719136436
616,6.015625,0.749663847,-3.065478661,9.887152044,0.781426462,1.333195897,-5.725527743
617,6.025390625,0.67321017,-3.126546023,9.850833758,1.142591408,1.458800223,-5.538170346
618,6.03515625,0.554748164,-3.117741243,9.789215742,2.773579398,1.123177791,-5.530958457
619,6.044921875,0.487828091,-3.147889725,9.839413773,4.886683202,1.170443048,-6.198510724
620,6.0546875,0.463228741,-3.259842041,9.771347454,6.877718271,1.393761769,-6.557635912
621,6.064453125,0.451212701,-3.285955073,9.736594391,8.631806159,0.511258601,-6.428316505
622,6.07421875,0.476674737,-3.322159834,9.843607509,9.73013678,-1.834335329,-6.924337599
623,6.083984375,0.478614374,-3.343701257,9.921950061,8.11353557,-3.971927602,-8.420597342
624,6.09375,0.472724383,-3.47264202,9.896756032,6.194027683,-5.998383596,-9.547896374
625,6.103515625,0.620585189,-3.682537286,9.814677424,5.657326165,-7.030198484,-10.41787915
626,6.11328125,0.572966148,-3.703383774,9.791560951,7.160129661,-5.090668928,-12.37744308
627,6.123046875,0.471691051,-3.615974579,9.78937475,8.839011635,-2.11398764,-14.3324959
628,6.1328125,0.238438156,-3.438338412,9.737746027,9.974199978,0.847856667,-15.92026308
629,6.142578125,0.110854507,-3.3744596,9.724315722,9.670906233,1.461607398,-16.72163617
630,6.15234375,0.071030602,-3.555508771,9.766382417,8.88417443,2.124115248,-17.27856971
631,6.162109375,0.130652141,-3.766597298,9.809250472,8.577065679,3.401782806,-17.70752335
632,6.171875,0.145755033,-3.855242171,10.04014809,7.538752204,6.504497987,-19.12090152
633,6.181640625,0.198458118,-4.016071404,10.17376981,4.740842009,12.15124799,-22.07668286
634,6.19140625,0.264156368,-4.129261481,10.07986271,1.885388862,17.56717945,-26.02057684
635,6.201171875,0.280154652,-4.148616344,10.22891033,1.862207785,23.69800146,-29.57730412
636,6.2109375,0.136056535,-4.323446719,10.2212235,2.680895405,29.56689662,-30.66308129
637,6.220703125,0.014423807,-4.314526431,9.626640213,7.084129035,29.56833086,-29.40668737
638,6.23046875,0.098533789,-4.028928962,9.395786525,10.65717741,27.1464143,-29.95194876
639,6.240234375,0.138855095,-3.855028937,9.162875963,12.52159486,28.96235598,-31.29320072
640,6.25,0.032597564,-3.886978299,8.859352433,14.5502587,34.30981433,-32.68301702
641,6.259765625,0.034119926,-4.08765758,8.508100053,17.15491982,32.47872037,-33.23119887
642,6.26953125,-0.099967175,-3.662915437,8.632173085,21.45861655,14.56270537,-29.57008534
643,6.279296875,-0.116333527,-3.421457823,9.314941101,24.21469183,21.34153492,-36.81158518
644,6.2890625,-0.50200639,-3.588163562,9.120571146,26.51037903,34.56356625,-39.89992231
645,6.298828125,-0.704920116,-3.260395548,8.9238518,30.15561725,29.71172487,-40.5766393
646,6.30859375,-0.451582868,-3.044075799,9.06032538,30.49888803,21.58874818,-42.14533208
647,6.318359375,-0.253305059,-2.920164572,9.052774411,26.48285552,17.24964511,-45.94404469
648,6.328125,-0.455965262,-2.809834531,8.880164428,20.11727367,12.1409723,-49.94256901
649,6.337890625,-0.296442732,-3.01989965,8.868845851,15.22022944,2.168391576,-52.16149882
650,6.34765625,0.124589181,-3.154729079,8.992692838,14.82003297,-2.144555084,-53.10387831
651,6.357421875,0.212100693,-3.117734075,9.227691507,14.56995315,0.18163126,-54.51590729
652,6.3671875,0.07686374,-3.101540798,9.241345705,10.99686144,3.678054344,-56.92795284
653,6.376953125,-0.051489583,-3.040074819,9.480303622,9.403793303,9.076998865,-57.96606583
654,6.38671875,-0.193697377,-3.007060503,9.495905028,9.132994166,15.08852056,-57.57642255
655,6.396484375,-0.301859566,-2.931487534,9.376087405,9.055280006,19.11662147,-58.67320591
656,6.40625,-0.315203013,-2.613507188,9.281154739,9.299123313,19.64726237,-61.56946272
657,6.416015625,-0.384798042,-2.519331341,9.026499259,8.276302117,21.04464368,-67.24519082
658,6.42578125,0.046971444,-2.197973008,9.382251704,13.5547259,29.98240977,-73.35583395
659,6.435546875,-0.240388685,-2.416249117,9.502846055,8.971950755,41.18859592,-71.55144606
660,6.4453125,-0.182917066,-3.0574133,9.704651847,7.994117862,56.25084629,-71.19565104
661,6.455078125,-0.667861121,-2.764066931,10.01792194,12.02662323,70.5339024,-69.52136929
662,6.46484375,-0.740569074,-2.428552644,9.979118022,12.00152535,76.33271843,-71.04354377
663,6.474609375,-0.782459127,-2.0815225,9.994299566,8.260037822,78.09686574,-75.99170247
664,6.484375,-1.151701264,-1.971308477,9.944191389,6.681074701,82.79062924,-83.26272341
665,6.494140625,-1.634186173,-1.63728224,9.556088046,8.586051337,76.97570989,-86.97446121
666,6.50390625,-1.890899009,-1.129613269,9.656842365,7.453898715,62.52428416,-90.30001506
667,6.513671875,-1.982872628,-1.013680913,9.811976979,-0.459547231,51.23882492,-89.45458657
668,6.5234375,-1.992592515,-1.252498458,9.92856515,-8.646932286,44.80079899,-83.16513018
669,6.533203125,-1.961557689,-1.393936894,10.22442039,-12.86198291,39.86690172,-74.87600738
670,6.54296875,-2.087461257,-1.526063917,10.62369172,-13.36146755,40.60476569,-67.22664618
671,6.552734375,-2.249102264,-1.712636867,10.88982918,-10.67306734,44.91916271,-63.3731516
672,6.5625,-2.471665238,-1.910277164,10.84489996,-4.601065227,49.07809654,-61.47684362
673,6.572265625,-2.61422391,-1.965642142,10.69755617,3.378170944,47.06143586,-63.60195802
674,6.58203125,-2.648482937,-1.840916426,10.63556624,7.757249121,41.98704812,-69.27243917
675,6.591796875,-2.594375281,-1.703051753,10.44362523,5.413629807,42.53112014,-76.56181829
676,6.6015625,-2.453461267,-1.5950877,10.51187777,1.229838351,49.62363964,-84.76320585
677,6.611328125,-2.87892567,-1.371814814,10.56276188,-8.150254188,57.32478018,-90.95345511
678,6.62109375,-3.087639505,-1.653255018,10.38544503,-19.49597735,59.00632399,-95.4474595
679,6.630859375,-3.060567418,-2.143407228,10.10722326,-24.49432869,57.92470894,-98.56131887
680,6.640625,-3.288992921,-2.259706352,9.895251918,-23.59230349,58.9901034,-99.66337129
681,6.650390625,-2.998956113,-2.192026123,9.995248307,-31.83245137,65.32977697,-98.2031371
682,6.66015625,-2.991153551,-2.581616253,10.12963517,-40.39669078,87.04000938,-91.38591701
683,6.669921875,-3.243480627,-2.456264756,9.937758669,-43.60220661,111.7212648,-85.7029156
684,6.6796875,-1.782049607,-1.919599013,9.675976446,-48.28086683,123.959884,-66.12917139
685,6.689453125,-2.459163817,-2.414465644,9.828879329,-48.83808266,125.6181287,7.529680224
686,6.69921875,-4.127627922,-2.228987547,9.332603117,-60.06858695,115.3698456,39.32925053
687,6.708984375,-4.129760006,-2.001947845,9.171483409,-71.42238605,117.806485,37.42874311
688,6.71875,-4.641972694,-1.937558603,9.143593644,-85.98119209,132.275786,40.98219111
689,6.728515625,-4.546631593,-2.799083116,9.487519903,-106.686753,136.0724682,34.04160942
690,6.73828125,-4.780729653,-2.392086175,9.649675102,-126.1622841,141.284103,9.777827089
691,6.748046875,-5.656441861,-1.486471813,9.959669514,-104.753908,143.014622,13.78019618
692,6.7578125,-6.196530568,-1.679718968,9.704506051,-78.33880114,145.8961288,15.83826024
693,6.767578125,-6.00605756,-1.954690493,9.458953574,-73.8159543,150.6961427,4.404144813
694,6.77734375,-6.286127998,-1.313044786,10.65775259,-85.43180052,145.1729524,1.549286187
695,6.787109375,-5.811782171,-0.674414971,10.47528548,-100.0685313,125.710191,4.367456717
696,6.796875,-6.112374121,-0.660686975,10.18937587,-80.68426714,115.6817448,24.9127166
697,6.806640625,-5.800926037,-1.319675397,10.3682258,-79.12553408,114.1715483,35.09405867
698,6.81640625,-5.026999693,-1.220454323,10.74374916,-80.00459189,105.2664236,44.62027832
699,6.826171875,-4.463747303,-1.591413744,11.00310298,-77.36732986,94.53726224,49.84003186
700,6.8359375,-3.816228255,-1.394839816,11.07432743,-75.26083009,81.62413686,53.93907313
701,6.845703125,-3.827223704,-1.141377789,10.78286105,-70.88466588,71.72034423,63.36544121
702,6.85546875,-3.991115685,-1.349300896,10.13687651,-66.39621199,63.77249588,72.24399205
703,6.865234375,-4.48881651,-1.187069328,9.528872192,-63.59694861,55.73430869,81.05186238
704,6.875,-5.039284472,-1.000253472,9.17728129,-60.45087607,52.50815516,85.37499435
705,6.884765625,-5.077250831,-1.276884837,9.089593411,-54.7840776,54.39919139,83.56003051
706,6.89453125,-4.383605957,-1.680693611,9.314466858,-49.97314757,56.4362512,87.7249522
707,6.904296875,-4.540963682,-1.461114486,9.426961589,-47.27170457,54.03007281,102.6590558
708,6.9140625,-5.364627488,-0.952794637,9.338602875,-44.4221071,48.4392077,110.4886805
709,6.923828125,-5.239999788,-0.894746394,9.134491777,-37.64812482,47.48889875,104.4130249
710,6.93359375,-4.428420524,-1.187852134,9.177561522,-30.83012859,51.08331839,95.20729054
711,6.943359375,-4.307286168,-0.826381045,9.515598586,-26.52840539,48.5857757,92.25966208
712,6.953125,-4.609303197,-0.392136297,9.445937586,-23.25274866,45.0561067,92.26421645
713,6.962890625,-5.309039263,0.057181455,9.017154215,-17.27802704,44.41167023,93.89656814
714,6.97265625,-5.729050236,0.127558544,8.343036358,-11.82305724,51.2923176,96.10761252
715,6.982421875,-5.972966136,0.037795437,7.833276124,-9.99672482,59.17891951,100.0307885
716,6.9921875,-6.161963644,-0.33463931,7.122850526,-22.76236707,64.49030262,103.9934223
717,7.001953125,-6.03626007,-0.114258763,7.874625461,-19.66640362,70.71276809,111.1868192
718,7.01171875,-5.88314382,-0.835521736,7.597357845,-19.92289448,83.23604433,120.2355553
719,7.021484375,-4.952686689,-1.323816802,7.770212644,-23.14598446,89.16829206,118.0805316
720,7.03125,-4.503804855,-1.103089232,8.442049579,-23.98111187,88.22148229,115.0502174
721,7.041015625,-4.854784729,-0.608530618,9.061857713,-22.97201063,78.54685078,116.6256579
722,7.05078125,-5.284306405,-0.318297277,9.092258149,-15.42744735,67.05597453,112.861467
723,7.060546875,-5.572245356,-0.362027436,8.359680149,-8.975609882,55.80736365,112.1769248
724,7.0703125,-6.216594959,-0.558500451,7.217819195,-7.845118079,44.43360715,118.0652685
725,7.080078125,-7.259582006,-0.43889219,6.183580885,-9.751384969,37.33212835,123.3359834
726,7.08984375,-8.155630609,-0.022666642,5.387559609,-9.153594922,36.41115746,129.1962498
727,7.099609375,-8.493795386,0.158887921,4.691958326,0.745823148,48.06770165,130.5214083
728,7.109375,-8.992297069,-0.16384475,3.61221068,7.764238072,69.92361231,129.4613851
729,7.119140625,-9.057506403,-0.528412864,2.821511391,9.317142382,86.8348846,126.9372563
730,7.12890625,-8.364111418,-1.302420377,1.951659918,8.25844302,108.0488687,122.1322021
731,7.138671875,-7.848147332,-2.169709416,2.166348157,9.931616935,124.5162831,121.0876693
732,7.1484375,-7.522251478,-2.160047248,3.604887898,0.806704298,128.2263216,117.9692725
733,7.158203125,-7.284420926,-3.023637081,4.738981397,-34.23888324,110.4377071,122.6624459
734,7.16796875,-7.072920873,-3.382396434,3.540382428,-115.4178105,61.31222258,125.1589952
735,7.177734375,-10.06095553,-1.663690599,1.279887674,-107.4381387,71.63583792,123.5703015
736,7.1875,-10.94954781,-1.873727103,1.586118062,-92.52941762,99.26720303,115.3533542
737,7.197265625,-10.7294228,-2.184986445,1.636242367,-105.0377618,103.8296159,112.1588511
738,7.20703125,-10.6142615,-2.630960274,1.420695688,-108.4734908,103.7990991,109.8586237
739,7.216796875,-10.65425175,-2.898210998,2.84912207,-99.64845114,113.5736201,109.5061315
740,7.2265625,-11.44824733,-3.534903625,3.531239815,-112.007583,120.6579004,117.7952065
741,7.236328125,-12.29265605,-3.867394452,3.76263569,-110.608696,120.2682155,112.5575242
742,7.24609375,-11.39622319,-4.694508349,3.922410395,-103.30474,115.2285004,90.43138729
743,7.255859375,-10.65872149,-4.883919422,4.453434172,-106.8589507,103.6361094,83.89553557
744,7.265625,-11.0303205,-4.883535279,4.047521627,-117.1867804,77.24608705,91.89357952
745,7.275390625,-11.84398038,-4.86754179,3.824832402,-121.4572704,59.69888989,97.30089049
746,7.28515625,-13.007998,-3.943572736,3.723828949,-127.6224965,48.55721148,98.83437256
747,7.294921875,-13.20214969,-3.771199964,3.280891202,-126.120015,52.51735096,91.45325423
748,7.3046875,-13.08055399,-4.221962043,2.480623873,-117.0366864,61.42465071,83.69646554
749,7.314453125,-12.41801429,-4.369586665,1.996542977,-110.7626594,65.12840647,74.67338204
750,7.32421875,-11.25511913,-4.61009683,1.44434239,-107.018131,67.87857826,65.32554569
751,7.333984375,-11.14041199,-3.782565336,1.426834229,-99.48103459,71.44455802,59.14613826
752,7.34375,-10.43506379,-2.817489751,2.057338113,-86.19729096,62.70420637,44.19370754
753,7.353515625,-9.133547573,-3.289359626,2.069724442,-80.30541865,44.4069313,37.80644535
754,7.36328125,-7.897610769,-4.221342502,1.11213145,-81.23653735,25.4455715,35.39156771
755,7.373046875,-6.735642579,-4.726986549,0.028647125,-86.69256926,20.89554379,27.32822435
756,7.3828125,-6.370805259,-5.044908861,-0.699171839,-90.60670533,29.94105376,32.33633061
757,7.392578125,-7.045125472,-4.072712212,-0.829257909,-93.80861882,38.77473011,44.87334383
758,7.40234375,-6.841867803,-3.296628986,-0.44219952,-99.27487366,46.35028234,44.1313437
759,7.412109375,-6.168666648,-2.940409946,0.285499576,-104.9923819,56.87457842,40.93077062
760,7.421875,-6.402673102,-3.039952009,0.407988525,-103.0864279,59.35786924,48.66024724
761,7.431640625,-7.119005073,-1.926233499,0.481981514,-100.139682,49.14107024,47.96128609
762,7.44140625,-6.676492304,-0.384097687,1.096008387,-103.4157989,46.90590555,29.18340993
763,7.451171875,-5.570437464,-0.019464945,1.618673668,-115.0462744,60.93264503,15.60098805
764,7.4609375,-7.204206642,-0.663580031,1.199026754,-114.1904867,48.77275284,43.0144379
765,7.470703125,-7.829281488,-0.208183523,1.237084184,-99.87913667,19.69909242,48.47712896
766,7.48046875,-7.90927852,0.196793109,0.673072494,-90.34651097,15.04579854,27.72093003
767,7.490234375,-7.89518872,-0.111501932,-0.255699732,-87.13789122,21.25986235,4.564184344
768,7.5,-6.767770007,-0.805516891,-0.695588015,-90.67713496,40.28164029,-25.55347982
769,7.509765625,-5.665120278,-1.260297175,-0.829978017,-103.8022369,60.91634771,-30.60760299
770,7.51953125,-5.483249154,-1.121820743,-0.863833447,-111.0436396,69.57941258,-19.8192105
771,7.529296875,-6.418604506,-0.991822547,-1.325189032,-111.6883783,86.74782937,-8.473845455
772,7.5390625,-7.136299064,-0.062156879,-0.574663211,-109.5716834,98.27631109,-8.052752457
773,7.548828125,-6.413715719,0.594074426,2.87667018,-107.4569704,114.2143019,-18.72024805
774,7.55859375,-5.725230825,0.629770109,4.640298625,-119.3469074,116.256066,-23.58592605
775,7.568359375,-6.343213016,-0.518257709,5.198105682,-98.56550685,80.89719261,-8.118331265
776,7.578125,-8.725788775,-0.975601759,7.256591665,-80.84019572,20.28372845,-40.25432231
777,7.587890625,-8.925011352,-1.770663132,5.445622986,-85.43021122,-34.19547155,-132.2596824
778,7.59765625,-10.06129594,-1.950625446,2.888044913,-55.97027468,-71.08253534,-175.9119913
779,7.607421875,-9.714467126,-1.228466922,-1.279585991,52.78796156,-138.340346,-135.8598111
780,7.6171875,-12.88620922,0.384599447,1.230665947,203.5666378,-134.0948888,10.51417586
781,7.626953125,-12.91549242,2.587328632,6.106227561,131.8986237,-175.8991043,41.70846158
782,7.63671875,-10.33726162,0.416389352,1.776623874,14.26611703,-220.2987577,33.05363435
783,7.646484375,-9.63605082,-1.791231739,0.118326437,-13.77873994,-193.8689254,-15.11548751
784,7.65625,-9.673071599,0.729656279,3.005296553,-40.2276188,-184.9682663,-100.3504043
785,7.666015625,-12.14237543,-0.75592203,2.209111258,-56.26329711,-230.2473055,-159.6877215
786,7.67578125,-9.194468734,2.455218938,4.044126089,-66.00782342,-263.2569065,-191.6837817
787,7.685546875,-14.99864905,-2.616031876,0.994818209,-83.36162616,-307.1248317,-120.305247
788,7.6953125,-14.45405564,-1.318801004,0.034815528,-55.60616898,-285.1451154,-178.6285169
789,7.705078125,-7.893070416,1.390823595,3.813753464,-73.52368977,-210.0778593,-145.0861078
790,7.71484375,-8.118794385,-1.055199496,4.094236055,-97.38976182,-112.5743048,-118.7754711
791,7.724609375,-7.735362916,-1.4139972,3.372133621,-87.20333422,-90.7133276,-67.137309
792,7.734375,-8.252644474,-1.04124216,2.829784463,-76.79951759,-67.65554001,-4.883463851
793,7.744140625,-9.061770715,-1.204445356,2.109116881,-78.8951887,-26.74749647,12.15064216
794,7.75390625,-8.068654563,-1.856073916,2.25294361,-73.61178362,-12.32360409,22.96172294
795,7.763671875,-6.098241389,-2.145885018,1.485599852,-75.78496651,-13.38141285,26.27805371
796,7.7734375,-8.8209918,-3.109793318,2.940539744,-31.08516276,-8.511875932,58.29415068
797,7.783203125,-8.555178187,-1.660699272,2.787890388,-68.48581727,43.78413999,-25.55067262
798,7.79296875,-6.95258212,-2.521465509,3.33105658,-84.9133985,45.44842174,-57.70724692
799,7.802734375,-7.507232579,-1.751814417,4.644467799,-74.22586034,4.45172268,-52.48969826
800,7.8125,-13.58236653,-2.678650402,2.04447887,-57.7490608,-56.71073328,-23.93262813
801,7.822265625,-8.820508855,-2.944875104,2.500290669,-94.17537072,-35.08911041,-202.9409333
802,7.83203125,-7.66464467,-3.558080011,2.334388681,-83.40111883,9.043395073,-168.9885646
803,7.841796875,-8.238966559,-3.265854923,2.355196066,-54.36478749,24.41586387,-111.7241708
804,7.8515625,-8.156030785,-3.298050647,2.31123027,-31.99545408,28.66274926,-76.98729213
805,7.861328125,-7.598270825,-3.473017384,2.643675245,-27.62510125,39.46408729,-51.57334838
806,7.87109375,-7.554102481,-3.760375029,2.851088385,-23.77370948,49.63339228,-38.44025983
807,7.880859375,-7.716826586,-3.641060065,2.852801693,-12.56712657,51.71698249,-33.68712402
808,7.890625,-7.297935422,-3.474811911,3.054283089,-12.46886135,55.95945883,-32.43809871
809,7.900390625,-7.870145482,-4.107235301,2.625743151,-16.65369945,63.35945004,-40.88517606
810,7.91015625,-8.32340399,-4.27773088,1.98806498,0.902002876,55.09973263,-49.76852583
811,7.919921875,-8.209742932,-4.43454837,1.595751812,11.60785744,51.45436587,-53.73594814
812,7.9296875,-8.012638491,-4.186373234,1.578128729,17.49356337,45.18979999,-54.89957477
813,7.939453125,-7.956237157,-4.571912207,2.153444581,17.37944669,44.10391339,-55.7058862
814,7.94921875,-8.323213371,-4.581150651,1.759558807,15.61332034,38.9992727,-67.2684405
815,7.958984375,-8.017901585,-4.671263086,1.009692713,27.38272558,24.93607129,-64.17245945
816,7.96875,-8.493100441,-4.612203699,1.295604748,28.78397413,28.49336697,-46.69507402
817,7.978515625,-9.081235802,-4.847805906,1.093306509,22.98667483,23.98979831,-31.93530154
818,7.98828125,-8.722737647,-4.532590307,1.314731233,28.88724125,10.51388669,-21.71157435
819,7.998046875,-7.955557089,-4.519239116,1.289062681,27.71151642,2.214147812,-16.81140355
820,8.0078125,5.880506939,-1.190612949,-11.23430649,54.96386758,47.75615767,11.43181082
821,8.017578125,4.185826243,-1.114858563,-10.44272163,603.4072494,617.623557,601.8389463
822,8.02734375,-37.33437475,5.430422539,16.44214194,605.125349,606.8105505,545.3035992
823,8.037109375,-12.71192437,0.566040697,2.292345638,145.1732165,-21.98442994,106.2210518
824,8.046875,1.817216497,-8.916608535,4.423560137,158.753628,-88.58026044,114.6339305
825,8.056640625,-9.197541861,0.018918675,-1.875240663,241.4292356,40.12859911,143.5127611
826,8.06640625,-16.97215578,2.923217619,1.876113457,157.47031,65.56297103,116.5821785
827,8.076171875,-9.020712341,-1.885759618,0.50783203,134.3830533,-44.30143359,55.9970355
828,8.0859375,-8.912801249,-0.532363041,-0.352459206,158.6457277,-37.6903457,36.03425245
829,8.095703125,-8.254736063,0.010421251,0.467416753,153.4934509,-6.788705545,33.52432601
830,8.10546875,-5.960818869,-0.649764393,2.341039629,133.0630367,-11.24373692,29.8876374
831,8.115234375,-8.2186059,-0.30118383,4.116066271,118.6564044,-44.39668639,42.22108644
832,8.125,-7.468548083,-1.257930604,5.98385409,110.9281399,-85.24957136,52.64972899
833,8.134765625,-6.713896114,-3.074545512,5.165132135,133.8977036,-107.7854459,58.48807643
834,8.14453125,-9.808910651,-0.940870079,1.861643095,152.7000602,-117.8362962,66.56921241
835,8.154296875,-11.84611021,1.170724791,1.311560112,154.6806007,-92.57659796,107.9367623
836,8.1640625,-17.02296206,3.454406259,1.47887345,152.181076,-132.6241194,128.6353414
837,8.173828125,-4.24857403,-1.860389252,-0.779037215,57.73485379,-87.67647564,39.84527222
838,8.18359375,-14.2294788,0.154486832,1.857747763,102.7801501,80.19917485,-20.53444568
839,8.193359375,-10.54956813,0.066006182,-0.615769673,68.69382224,-53.15005981,-41.83887273
840,8.203125,-6.311324628,-1.278354056,4.037344313,78.53790838,-38.10206899,-52.83988502
841,8.212890625,-8.028025376,-0.841472761,4.593813761,90.21181478,11.8741518,-66.91783644
842,8.22265625,-9.779743497,-1.53886325,3.741445862,50.21357236,61.39565998,-71.45437174
843,8.232421875,-10.77609957,-1.874041852,3.956281305,32.33198881,94.81136204,-83.33589908
844,8.2421875,-10.79038063,-2.229924445,4.43885632,64.6642538,93.26937884,-105.8148011
845,8.251953125,-9.771478658,-2.193543029,2.875261185,100.3920973,63.96283262,-130.6552763
846,8.26171875,-9.341077356,-2.483748364,2.547723746,77.56238075,63.3845179,-118.4985803
847,8.271484375,-9.276600866,-1.909030752,4.255422915,85.01150188,60.58025361,-125.9960475
848,8.28125,-6.657054663,-1.935559826,4.831140572,75.78753251,21.25355443,-162.3912764
849,8.291015625,-6.203636618,-4.149367762,3.436922275,64.33962989,10.18774837,-142.2547731
850,8.30078125,-11.50295538,-1.978921968,5.309513601,78.11506973,-68.6741436,-72.87371941
851,8.310546875,-8.252000671,-0.939064727,6.949507472,107.9787737,-181.8629251,-34.06513805
852,8.3203125,-6.807936396,-4.000098037,3.503601839,119.5732388,-231.3642085,-6.232861176
853,8.330078125,-6.475284074,-1.531765766,4.071626944,166.4470891,-358.6525486,76.35115304
854,8.33984375,-16.0738123,3.600810964,6.183105362,129.1638744,-316.0403495,91.35976217
855,8.349609375,-16.88046104,1.872357971,6.860883161,130.2311372,-334.4719933,48.42771503
856,8.359375,-11.81321888,1.355788735,7.636612839,168.1456546,-341.6102197,-11.11669658
857,8.369140625,-9.492381197,1.655918544,8.286760209,185.5317442,-229.0116494,-46.72354829
858,8.37890625,-9.136522137,1.509778191,10.33750359,185.5163811,-131.5909066,-62.91735345
859,8.388671875,-7.312040188,1.900316104,11.30108943,170.7473454,-117.8165523,-75.52976247
860,8.3984375,-4.907306621,0.689364799,10.8840884,96.17558177,-107.0430316,-81.05722629
861,8.408203125,-4.307889276,0.279720139,10.83547492,79.0545834,-82.92287691,-88.27885167
862,8.41796875,-5.299419199,-0.107631548,7.648645994,90.64509236,-53.25958234,-102.67462
863,8.427734375,-4.055755597,-1.725576056,7.511756852,69.91923744,-17.49674386,-116.4749379
864,8.4375,-6.754477398,-3.164862348,5.752119725,79.48372498,-6.697021046,-128.540862
865,8.447265625,-6.052900426,-4.25929464,5.911115035,123.795081,-30.21801681,-142.583341
866,8.45703125,-6.507637723,-1.622470025,6.691424697,189.1757021,-15.76346021,-161.4439747
867,8.466796875,-10.57669724,-0.336096631,7.270394625,214.293834,11.3882177,-174.4835242
868,8.4765625,-7.195211178,-0.430428053,7.72806741,184.4782643,-31.07974943,-159.6090266
869,8.486328125,-0.46039062,-6.382040475,10.23031301,165.4662466,-57.20435872,-155.7877962
870,8.49609375,5.937086129,-3.253827316,9.612722253,165.1630426,-170.0225332,-157.1686749
871,8.505859375,1.514849981,-3.636898319,5.463334436,164.7832609,-294.5999446,233.9324426
872,8.515625,-19.67919352,6.30482695,7.048968362,241.326887,-248.3529143,337.8762468
873,8.525390625,-12.97143779,3.704035071,5.298681651,174.1754327,-188.1508044,161.5585425
874,8.53515625,-14.68032763,4.262861538,4.406621418,101.3870834,-111.4239072,23.70121412
875,8.544921875,-7.817491486,1.580616336,6.160390823,73.50801651,-99.43568187,-115.6927275
876,8.5546875,-7.186765912,2.783223814,7.086962531,81.064987,-87.99142587,-155.2797495
877,8.564453125,-6.585764087,2.84185005,7.192134452,61.7463056,-52.92903291,-178.2668453
878,8.57421875,-6.510017744,1.156269774,7.520543469,39.79862588,-0.738994156,-193.9903461
879,8.583984375,-6.71036101,-0.095322551,7.04119169,30.8932535,24.36252847,-208.7540254
880,8.59375,-6.211227238,0.779458621,7.258664779,40.10617867,35.93810212,-229.0853031
881,8.603515625,-5.274661711,0.912431458,6.543997795,51.98327428,47.70004624,-255.0775787
882,8.61328125,-5.558496893,1.573388612,6.669333468,69.78930128,88.98461132,-301.5406603
883,8.623046875,-4.962024235,0.707479617,6.162432308,77.83201563,104.5163115,-319.1499035
884,8.6328125,-5.391622362,-0.314022501,6.052313228,79.64978083,103.0934571,-319.4539548
885,8.642578125,-5.339513983,-1.674352295,6.578026844,87.64588201,80.660193,-309.744117
886,8.65234375,-5.906113557,-1.728729995,6.897260547,100.2013276,47.83106604,-325.5243147
887,8.662109375,-5.828239543,-1.299706725,6.8233031,95.48171705,9.554691676,-317.1686618
888,8.671875,-4.388954492,-1.665776323,5.552725795,85.86482804,-8.522081639,-324.5601572
889,8.681640625,-5.01373354,-1.7240773,5.459318774,65.76241015,5.533296412,-324.737932
890,8.69140625,-6.042575802,-2.586811876,5.342549004,41.50469134,-17.23030425,-297.8605021
891,8.701171875,-6.371617455,-2.976534759,5.361125014,36.05269221,-74.63435697,-301.7277396
892,8.7109375,-6.249100563,-3.257912708,6.393835193,41.59430459,-92.9596218,-279.863612
893,8.720703125,-4.568877433,-3.959436329,5.28481856,40.26714281,-103.1600391,-251.837679
894,8.73046875,-1.904116018,-5.594467821,4.715527273,45.8139522,-103.7239492,-212.2071921
895,8.740234375,-5.203068836,-2.868493781,6.415911502,73.3264014,-55.98460437,-130.8412894
896,8.75,-6.453582656,-1.960208918,7.409438119,67.67042441,-14.76210776,-114.8113949
897,8.759765625,-5.534226574,-1.726716641,7.213502753,65.90418957,10.94608053,-106.7115808
898,8.76953125,-5.675788503,-0.606559764,7.264203157,70.06241964,31.79278457,-91.13393949
899,8.779296875,-5.516394377,-0.484434969,6.749645665,74.70526865,43.10906984,-85.21033915
900,8.7890625,-5.849692351,0.050638809,6.337943892,78.86722607,43.48629926,-85.06426915
901,8.798828125,-5.257691744,0.166731239,6.458230709,74.45316673,43.83783098,-81.01428903
902,8.80859375,-4.615133482,0.320265552,7.266257013,67.94935287,61.48468776,-67.90839687
903,8.818359375,-5.057542078,-0.352299223,7.782077627,59.87495314,102.4981749,-48.68385669
904,8.828125,-4.841294031,-0.713728654,8.180068581,56.33998863,141.4939997,-31.60210587
905,8.837890625,-5.335258547,-0.417848239,8.339985616,54.35059053,185.1933589,-13.94086357
906,8.84765625,-5.708955566,-0.622927072,7.988548841,45.77062449,192.9192644,5.782211234
907,8.857421875,-5.539036378,-2.233303471,8.027513201,45.71513242,173.4137444,22.06152455
908,8.8671875,-2.884908855,-4.241036188,8.2595664,23.33771701,140.3094972,-33.00953708
909,8.876953125,-5.431016262,-3.345739849,7.299788583,20.84672405,99.74156576,-120.9459937
910,8.88671875,-6.290195742,-3.311988068,4.060459437,79.40239198,26.59005747,-138.6658037
911,8.896484375,-5.499652123,-3.022686933,10.65949807,158.7693953,-86.2880935,-146.1765672
912,8.90625,-5.138393273,-2.36813268,10.22658699,135.6318508,-56.69245374,-179.1958123
913,8.916015625,-4.482689934,-2.178571384,8.312357039,94.37741041,-40.63524018,-202.4233756
914,8.92578125,-3.17986937,-2.88488876,10.34668471,82.17484231,47.7938413,-195.4545315
915,8.935546875,-5.834264892,-2.432615251,10.06488532,101.5570121,160.229571,-163.1944564
916,8.9453125,-5.211722545,-0.106780256,10.11304394,93.40406414,179.0734576,-141.9500054
917,8.955078125,-3.810144716,-1.681786591,12.11651468,51.90612502,167.0916436,-121.1691158
918,8.96484375,-5.00834531,-1.91865905,12.64718437,99.51690784,210.3523573,-63.83569845
919,8.974609375,-6.174699621,1.830078792,8.693102783,93.43265125,169.1525196,-25.88679074
920,8.984375,-7.256028129,-0.291352108,10.26683881,55.76753061,100.1844623,-5.037617304
921,8.994140625,-12.04406976,1.158101018,8.787301074,90.70909577,151.8530368,96.79897454
922,9.00390625,-9.900287205,2.612642368,7.147930968,74.17407413,151.7912034,61.73649127
923,9.013671875,-4.495077111,-0.116215573,7.031619373,66.14083186,74.69580293,-35.60871593
924,9.0234375,-3.887104486,-0.325509471,8.74213744,59.09149332,72.06523986,-34.91381743
925,9.033203125,-0.258932183,0.345907141,10.92662623,61.35786296,75.36343211,-28.47511192
926,9.04296875,-4.874780012,0.029706764,9.025227626,40.23008254,74.03256598,-21.30904962
927,9.052734375,-8.285622515,-3.71776026,9.459613757,16.28689721,70.48254024,-20.14894247
928,9.0625,-9.541194043,-5.323131178,11.37686332,20.36596393,58.58824733,-7.893355986
929,9.072265625,-12.22736192,-6.131715729,8.988887238,14.36385806,36.22945218,0.140928665
930,9.08203125,-13.73909858,-6.038606075,4.184114898,-17.79197019,19.57576741,5.716531844
931,9.091796875,-13.31271471,-3.530367739,0.487570024,-40.4457631,19.4010488,19.72618704
932,9.1015625,-11.17454704,-0.506008061,-0.673206801,-35.86111879,48.89486692,44.03415213
933,9.111328125,-7.048298907,1.649612509,0.817931076,4.906261392,50.44829729,90.94710811
934,9.12109375,-5.886738965,5.714341458,3.19695469,91.05753968,25.3525896,140.4680852
935,9.130859375,-5.814175499,6.778815487,4.534399079,145.9299845,27.58976556,124.9038452
936,9.140625,-8.365656065,3.012365381,4.984057648,149.1595598,8.42612902,124.9771751
937,9.150390625,-10.95669636,0.988235875,5.896332327,109.0550701,-0.323199783,133.6238492
938,9.16015625,-12.29784862,-2.350105886,3.931209618,45.86204986,0.625576916,100.9777827
939,9.169921875,-12.77100776,-2.706225872,-0.201621441,-19.68283395,10.65642678,77.17265627
940,9.1796875,-12.02898001,-0.374941338,0.410115292,-40.60491372,53.4981082,52.53878761
941,9.189453125,-10.86509051,0.132018474,2.705140613,-47.55034388,88.0496389,29.86023465
942,9.19921875,-11.16195016,-0.53057257,3.015667371,-45.41275523,88.55252261,13.71060445
943,9.208984375,-10.41935186,-0.309029018,3.133527916,-28.31807778,77.74511565,-0.735928805
944,9.21875,-9.330238902,-0.72060102,2.896681604,-14.61706719,83.2033842,-17.05567568
945,9.228515625,-8.97373121,0.120199746,3.860064434,-7.020871331,98.0851914,-18.87724266
946,9.23828125,-7.559275128,0.743514253,3.699918515,-31.74646264,86.19197267,4.210902815
947,9.248046875,-6.587478843,1.040888186,2.837462373,-64.29637163,98.55556766,17.9048761
948,9.2578125,-5.942491577,1.433440831,2.783689269,-91.0754975,117.921982,25.29894202
949,9.267578125,-6.497996977,0.026648843,2.267715123,-135.3608927,109.7134186,42.2539516
950,9.27734375,-6.569799189,-1.632927452,1.98695945,-144.020057,109.3008181,25.42878724
951,9.287109375,-7.064920456,-1.650063018,2.343082113,-125.5284012,106.6941799,18.05042502
952,9.296875,-4.049374333,1.180348753,3.378457293,-120.7368558,114.9567196,16.19143214
953,9.306640625,-11.44712193,-4.669431651,0.339614579,-190.9081106,175.0484627,-18.25885286
954,9.31640625,-11.04722688,-6.481540061,2.263131059,-88.45796984,87.4069582,-8.228833836
955,9.326171875,-7.837191166,-2.162953213,4.102300732,-25.11335768,97.33842964,-23.72279359
956,9.3359375,-6.970189379,-1.329060083,4.252655918,-35.83183286,95.11828761,-31.18818619
957,9.345703125,-8.785934521,-2.254954597,3.445838539,-59.57872222,0.985882835,2.291106951
958,9.35546875,-7.928315285,-1.626215223,2.101299142,-49.81627784,-48.79858412,8.398671046
959,9.365234375,-7.442407843,0.538707601,4.478447236,-19.88904913,-98.38709558,8.996865886
960,9.375,-7.095511325,1.18628897,4.062200801,-14.94016889,-44.39237828,-0.9068496
961,9.384765625,-7.623149193,0.524676639,2.922213708,-7.107237428,24.22800193,-9.0176152
962,9.39453125,-7.730657556,0.375551167,3.470477689,-3.253156732,62.76009569,-6.087848475
963,9.404296875,-7.687427794,0.74527843,3.680910919,-4.183318584,81.89153248,-9.665716141
964,9.4140625,-7.875189403,0.649929039,3.435450652,-15.08860506,79.36733804,-12.93831465
965,9.423828125,-7.967805587,0.412368446,2.681757384,-23.11558657,78.26260771,-9.467154882
966,9.43359375,-8.067610475,-0.212113645,1.519982074,-21.15196362,94.13638536,-2.307702767
967,9.443359375,-7.788927735,-0.325874898,1.66915135,-14.38598819,114.5053045,7.174522591
968,9.453125,-7.320511424,0.15743306,2.193177699,-16.33057335,128.0854101,12.33189224
969,9.462890625,-7.487327611,0.458347096,2.551317961,-21.26133849,148.1342312,16.44771194
970,9.47265625,-8.541011888,-0.599938989,2.182197418,-29.85860822,164.7583944,21.51980121
971,9.482421875,-8.614205957,-0.806807014,2.184770963,-45.05350198,173.1221679,25.91238802
972,9.4921875,-9.352459716,-0.62729789,4.283412079,-62.73843028,197.881906,28.99205214
973,9.501953125,-8.498124682,0.512439031,5.676244323,-85.2434752,169.1585736,35.87072096
974,9.51171875,-7.352504967,1.156467053,3.348177215,-109.0058484,104.432494,31.76057866
975,9.521484375,-7.726338131,0.937053919,2.997085994,-109.6739765,71.16807526,21.46288894
976,9.53125,-8.132593146,0.670248944,3.01971286,-110.4715556,73.76405408,21.83794897
977,9.541015625,-8.505192125,0.008926263,1.646374018,-116.16092,88.5752362,25.43815126
978,9.55078125,-9.137394744,-1.06465032,0.82752652,-117.4580612,95.7653082,22.80388854
979,9.560546875,-10.16709633,-3.098342182,2.085542148,-106.8206919,82.87614023,14.1773407
980,9.5703125,-11.07996706,-4.655519094,1.490379681,-97.39144395,70.58699281,4.559658403
981,9.580078125,-11.60130063,-5.147684131,1.166975514,-88.95133144,77.18661951,-8.760415143
982,9.58984375,-10.95465664,-4.236811641,2.204356609,-70.23921567,93.89257605,-22.54777027
983,9.599609375,-10.88085894,-3.547373983,2.732539739,-27.93478438,86.21025135,-36.54548317
984,9.609375,-11.77905697,-3.742845208,2.319151244,29.38635748,53.29540145,-44.81677081
985,9.619140625,-12.8985024,-3.806217398,1.66422476,68.71895316,30.9488195,-44.56903514
986,9.62890625,-13.2489842,-3.077370357,1.257269932,98.68628694,1.750077688,-53.76987598
987,9.638671875,-13.73099606,-2.659737592,0.975629448,86.82619296,-6.084800819,-83.59185811
988,9.6484375,-15.31010129,-3.906676552,0.223901578,67.11055206,-27.69014912,-104.2488217
989,9.658203125,-15.40809228,-2.722379255,-1.405970895,55.70408496,-84.90702757,-85.19791426
990,9.66796875,-15.29088663,-1.264033254,-1.863170101,43.47021333,-108.5890911,-64.24568213
991,9.677734375,-13.78215835,1.751815483,0.220695798,52.91166065,-122.1609102,-42.34499033
992,9.6875,-12.6566959,3.220040592,0.910138822,69.61313148,-125.9542581,-23.14897615
993,9.697265625,-12.44225648,3.224400627,-0.12506337,88.50608609,-131.0041526,-11.47205761
994,9.70703125,-12.31379844,2.195232367,-0.272297239,122.5649442,-138.2718654,-4.413256862
995,9.716796875,-11.8388648,2.976964094,1.407145429,145.7556708,-142.374509,-2.951239409
996,9.7265625,-13.4949601,1.525424574,1.947885421,151.6245301,-139.4135638,15.10221959
997,9.736328125,-14.01125749,-1.195972105,0.845785848,192.6573194,-105.5858264,28.57027881
998,9.74609375,-13.45146514,-0.881050506,0.44715895,193.241761,-123.6960316,54.85125225
999,9.755859375,-13.3253005,-0.849116701,-1.161826444,190.0846768,-166.7390213,80.22435531
1000,9.765625,-12.56263528,-0.955000965,-2.448634634,182.3736448,-174.6754634,94.40716342
1001,9.775390625,-11.8688384,-0.211974712,-1.831651009,163.9848774,-166.0177068,95.32981413
1002,9.78515625,-10.97949329,0.731302346,-0.056737368,120.2102117,-145.3924185,86.10845467
1003,9.794921875,-10.49787514,1.37201088,1.321899426,73.59809947,-124.9558132,78.0439417
1004,9.8046875,-10.36225229,1.57794436,1.885372001,40.30246379,-118.9878333,86.96183752
1005,9.814453125,-9.843231639,1.58042859,1.430575476,35.97554042,-116.9518311,105.8233384
1006,9.82421875,-9.367273569,1.538111669,0.941452499,37.72601756,-125.5147395,129.3675234
1007,9.833984375,-11.08074358,2.221093575,1.19013648,19.54575395,-145.5917173,159.0614955
1008,9.84375,-11.65297772,1.249418663,0.49150611,-11.75990357,-198.1840589,156.1885618
1009,9.853515625,-11.38124038,0.832226895,1.218678683,-17.19135998,-227.0701797,166.3621743
1010,9.86328125,-10.65106396,1.448206619,1.173733164,-7.408682439,-203.7419834,168.0357613
1011,9.873046875,-8.17709919,0.697376356,1.295157958,25.77726602,-129.0327527,104.0016617
1012,9.8828125,-2.706835742,-1.882084386,2.941608581,60.76403814,-57.46731893,54.27759006
1013,9.892578125,-2.29269974,-1.178072761,2.450948297,66.7314053,-21.47876991,63.62496218
1014,9.90234375,-3.820761034,0.475069151,0.910066823,48.60306654,-18.28611831,68.66306951
1015,9.912109375,-3.015128268,1.746994525,1.528532471,22.31375877,-11.37876559,71.51307437
1016,9.921875,-2.423798734,2.331394266,1.76251215,4.865041681,0.500119782,78.31215326
1017,9.931640625,-2.134488178,3.108817603,1.159148151,2.317825423,-11.73549811,84.54873663
1018,9.94140625,-3.14263507,2.835901262,1.544623873,3.638971409,-22.52047761,83.22256446
1019,9.951171875,-3.965828355,3.059808642,1.99608391,-4.20041533,-20.53266478,74.30607365
1020,9.9609375,-3.771245123,3.623379214,2.230258715,-13.12861271,-29.53197769,62.32305179
1021,9.970703125,-4.080423724,3.285966117,2.122602497,-18.8735629,-46.12850229,45.20982825
1022,9.98046875,-4.628806835,3.114382746,1.529683288,-15.15708024,-72.97001812,29.15828894
1023,9.990234375,-4.546666436,2.890987257,1.947824154,-15.52270321,-81.86523986,20.85923352
1024,10,-4.331426103,3.234298854,3.326351501,-39.44078538,-71.03717407,2.575933108
1025,10.00976563,-4.794728058,2.571596238,3.712215461,-107.0982711,-8.548718998,-61.46353494
1026,10.01953125,-6.589396843,2.087347546,3.609308255,-137.0909492,72.42776288,-111.1802616
1027,10.02929688,-7.840226594,2.95502078,4.580231639,-135.6746188,82.48855199,-155.5536477
1028,10.0390625,-7.330943676,2.052018795,4.531654107,-146.4755881,46.29118547,-196.0175308
1029,10.04882813,-6.016595709,-0.293406622,5.473565851,-137.3672579,31.06293448,-151.2996028
1030,10.05859375,-5.32819629,0.95870272,5.524085102,-138.3128102,33.12201953,-98.55371948
1031,10.06835938,-4.99090788,2.217822972,7.092863734,-176.7859878,36.75578568,-90.34911174
1032,10.078125,-4.790676067,2.043038997,7.078367669,-214.2634878,38.38075312,-94.05223506
1033,10.08789063,-5.298237856,0.595007312,6.278079241,-224.6588531,53.87183734,-93.00306925
1034,10.09765625,-5.385498361,-0.017891352,6.530972452,-224.1495037,64.41422016,-102.6488717
1035,10.10742188,-5.676404754,-0.596701382,5.096751378,-254.1863621,77.90403184,-114.6004456
1036,10.1171875,-7.084471379,-1.681409072,6.442426987,-260.6946608,76.53088273,-116.1808659
1037,10.12695313,-7.658232527,-1.549292313,6.566141348,-236.024732,24.44633122,-104.5761359
1038,10.13671875,-8.435030226,-3.029491104,5.971586195,-172.457634,-17.38972542,-70.52811641
1039,10.14648438,-9.531257048,-3.44939185,6.766153725,-130.7106114,-40.31177543,-33.93551129
1040,10.15625,-10.75903471,-1.105431099,7.859497004,-113.3150372,-64.4614791,-10.85865962
1041,10.16601563,-10.92044912,-0.672987054,6.811322734,-104.1862962,-85.5979097,3.364759571
1042,10.17578125,-10.71761826,-0.482274149,7.082793822,-94.3931109,-79.07176087,10.53193007
1043,10.18554688,-9.796111202,-0.076862027,7.510003664,-79.67021951,-53.56991535,11.00468723
1044,10.1953125,-8.921541083,0.697130959,8.121664043,-75.3555917,-28.88464158,-4.802914875
1045,10.20507813,-7.954677663,2.867770775,7.671528583,-59.51675094,-24.43894677,-33.20612615
1046,10.21484375,-8.1728583,7.169330866,6.836579959,-39.20841862,-63.47151899,-83.2668157
1047,10.22460938,-9.905446091,10.92319439,4.872282712,-102.7688895,-225.8737629,-185.0186071
1048,10.234375,-6.880684258,-6.06582837,3.051055755,-38.75036217,-361.4351647,-293.1158114
1049,10.24414063,-8.616645868,-4.440938031,1.864429125,129.1598073,-197.9020643,-234.1909506
1050,10.25390625,-9.154876625,-13.44606642,0.996377303,-9.733677343,-32.34905093,-114.0364348
1051,10.26367188,-12.21750607,-12.34973399,-2.91407775,-80.66432988,8.223721446,-38.81483395
1052,10.2734375,-15.32914378,-7.413023125,-6.917178098,-112.0943746,50.81441047,-23.40609942
1053,10.28320313,-16.35287524,-12.77562991,-2.2325553,-99.56933073,59.87968035,37.39115338
1054,10.29296875,-16.32718939,-5.453613818,5.189118374,-108.1157623,-157.0559704,170.6417795
1055,10.30273438,-11.80214107,1.694959276,7.380828442,-217.2064668,-367.1407523,217.4060693
1056,10.3125,-11.63509746,-5.848756656,11.95860899,-224.4354351,-267.9495058,320.1165945
1057,10.32226563,-7.604158318,-3.379619887,19.37306192,31.06459065,-164.0834423,249.8616927
1058,10.33203125,-7.418698981,-1.032699244,13.92805551,118.663073,-98.73168145,119.0809896
1059,10.34179688,-8.933029688,-2.746005489,9.862519208,75.34285645,-25.01658223,49.03674961
1060,10.3515625,-10.33074606,-2.200245419,3.275888974,-15.35394193,0.149590431,10.59657741
1061,10.36132813,-10.84177763,-1.284491625,-2.462939313,-109.3265839,35.30040888,-10.61464078
1062,10.37109375,-10.6201794,-0.969312836,-5.729442184,-165.4970997,110.3940924,-51.66486771
1063,10.38085938,-10.26729599,1.291013227,-6.241171433,-182.355836,218.2589088,-93.2011291
1064,10.390625,-10.04357677,0.599366613,-3.000619069,-192.4607575,333.8729481,-83.16593428
1065,10.40039063,-11.45874261,-3.185459645,0.167043548,-224.7408026,375.5833767,-62.33604838
1066,10.41015625,-15.91033701,-2.244809402,16.57306247,-312.5462113,74.33800168,2.356984738
1067,10.41992188,-5.696920577,-7.408641291,6.378800572,-303.7201366,-399.5234621,47.26760471
1068,10.4296875,-4.901685654,-6.430385603,-11.28609385,-87.96572078,-296.5230753,-34.36009472
1069,10.43945313,-6.643463181,-5.24208776,0.939625417,-86.25450011,-12.69662535,-28.67602552
1070,10.44921875,-8.44153938,-8.020646471,5.110914713,-118.6706239,-32.10366202,-4.481437515
1071,10.45898438,-9.0510241,-8.057614924,4.731659261,-46.08008225,-39.66820786,-13.81989732
1072,10.46875,-4.93522167,-9.308839759,4.517403628,1.362456964,-4.989063248,-45.22510252
1073,10.47851563,-5.015924504,-7.267231785,4.590737537,-98.91141892,57.80521071,-23.49912976
1074,10.48828125,-6.58564038,-4.125539854,7.423819255,-152.2166283,78.54132707,-35.60673194
1075,10.49804688,-8.138806474,-2.531931375,6.954990462,-141.7845465,61.39416778,-53.37902388
1076,10.5078125,-9.838225009,-3.585682117,3.342694085,-140.9015022,69.37655378,-97.70068855
1077,10.51757813,-9.14197067,-4.440909961,2.050321942,-153.1764,89.80367793,-175.3584109
1078,10.52734375,-7.793817671,-6.21086263,2.228465626,-158.4676123,74.47852938,-249.2182092
1079,10.53710938,-6.546397158,-7.138244372,1.416980846,-158.7434412,24.64520585,-266.1104694
1080,10.546875,-3.804923791,-6.06973584,1.992327558,-124.5827186,12.85383114,-270.6026062
1081,10.55664063,-1.200581612,-6.855912494,2.878772226,-103.8672755,-6.548756816,-261.125328
1082,10.56640625,-3.016824918,-6.001544705,0.689550232,-119.9280242,-38.86206277,-236.7682192
1083,10.57617188,-0.834396279,-4.077004042,0.326470125,-139.044624,-57.52115463,-263.0255045
1084,10.5859375,-1.56600473,-4.234253994,0.711728973,-163.1829206,-88.07733591,-248.8206803
1085,10.59570313,-5.592569768,-2.233824646,-0.363098808,-183.4207029,-115.3992364,-265.7989007
1086,10.60546875,0.275876489,-3.877572765,2.909499115,-219.5088344,-162.2130995,-346.0952503
1087,10.61523438,-4.058493537,-1.57943409,4.8905951,-309.0866491,-220.7582791,-346.388894
1088,10.625,1.32702522,-9.466184196,1.417898493,-402.1170328,-209.1984543,-393.7098095
1089,10.63476563,8.846341367,-16.89203871,-5.08986965,-349.9097769,-192.3242137,-268.957425
1090,10.64453125,0.662273794,-14.04154427,-3.568420861,-146.754148,-147.4583448,-57.15353625
1091,10.65429688,-0.741713651,-11.72384476,-2.392042676,-55.83793027,-119.2189867,-14.02327477
1092,10.6640625,-0.462505886,-10.68858724,-0.365130553,-40.28248272,-121.0689186,-0.563411279
1093,10.67382813,-0.28432793,-10.71263467,0.331265187,-41.38939207,-113.2230065,24.68874004
1094,10.68359375,-1.287364239,-9.78156294,2.022470056,-30.59777442,-106.9051508,48.39280636
1095,10.69335938,-2.97498098,-7.832701855,3.183940575,-50.83942651,-153.1081784,51.02750916
1096,10.703125,-2.753518076,-7.312239429,1.419396476,-77.18974948,-167.1504062,42.3303097
1097,10.71289063,-3.162652191,-7.390241727,1.411527771,-79.58092013,-160.0449988,44.44013885
1098,10.72265625,-1.846487096,-8.237370246,0.895297983,-88.79733193,-162.102105,40.37589173
1099,10.73242188,-1.535660369,-7.976439389,1.004799779,-106.0093919,-162.5313343,49.04572733
1100,10.7421875,-1.885278933,-7.500944053,1.103899781,-111.7155543,-161.0810756,64.44355545
1101,10.75195313,-1.690668941,-7.006742362,1.910439091,-113.1834387,-166.8971854,91.92881563
1102,10.76171875,-1.01720068,-7.316966458,1.2274798,-112.2419808,-209.0763205,152.9201843
1103,10.77148438,-1.21792089,-7.562651928,0.870081442,-84.57047004,-264.3187094,252.5586984
1104,10.78125,-3.11376223,-8.264869406,-2.649440017,-57.31723568,-293.2805607,346.9195593
1105,10.79101563,-5.129422873,-9.077849931,-5.350435627,-31.89617865,-275.3446079,358.771633
1106,10.80078125,-5.820434241,-9.037307801,-5.215170876,3.695991976,-235.7037915,291.4201536
1107,10.81054688,-5.022915332,-8.532402168,-3.495787829,42.54606763,-206.0064519,217.1417339
1108,10.8203125,-4.558477939,-8.402801616,-1.95155445,66.74470448,-183.9290029,191.4336941
1109,10.83007813,-4.767736328,-8.916251631,-0.276782749,96.65403914,-158.3884244,169.0982082
1110,10.83984375,-0.218872115,-8.919405865,2.37982393,114.5931605,-161.7153659,169.1787989
1111,10.84960938,-2.714012319,-7.380127615,4.703720595,140.6776294,-121.0497839,223.3081839
1112,10.859375,-4.27590844,-5.693327623,5.074526001,139.4768066,-90.2078853,239.2631809
1113,10.86914063,-4.93952524,-4.895679257,4.78358118,145.6171948,-81.80093358,259.74282
1114,10.87890625,-5.674445526,-4.546168043,3.890247733,155.9038697,-78.84428594,270.6014172
1115,10.88867188,-7.67651496,-5.003504402,2.543743668,171.0132129,-50.73130162,249.6793652
1116,10.8984375,-8.520003417,-5.297536224,0.981957881,159.9616087,-22.10910519,174.8324023
1117,10.90820313,-9.032676545,-5.615402294,0.694447266,128.3157711,-10.57466156,121.4111592
1118,10.91796875,-9.541016017,-6.97281052,1.247955309,67.29196296,-26.31927872,66.94218342
1119,10.92773438,-9.05434599,-7.610345808,1.662246588,43.7332468,-40.6302204,14.89144679
1120,10.9375,-9.518396282,-6.645863516,1.86737802,37.31209671,-64.43042056,-10.08472685
1121,10.94726563,-10.25804295,-6.458909066,2.053313809,10.59910491,-89.05055195,-24.12577466
1122,10.95703125,-10.67748048,-6.732649359,1.694064413,0.51981307,-106.9676458,-43.79508165
1123,10.96679688,-11.6801784,-6.035622959,2.52544285,-6.130111303,-111.1159895,-60.56122587
1124,10.9765625,-10.17760753,-6.484127646,3.678804828,-33.63230384,-77.90717972,-92.23318466
1125,10.98632813,-10.29101906,-6.590342943,5.556071343,-23.09364777,-72.83506098,-93.39517438
1126,10.99609375,-11.13367034,-7.001592626,4.94276313,-20.63180261,-73.83991106,-83.39250064
1127,11.00585938,-12.03877179,-6.214815146,3.571824057,-37.81936546,-81.27425009,-69.50338442
1128,11.015625,-9.38881411,-4.590366239,1.53728243,-125.82985,-43.38704781,-56.12895435
1129,11.02539063,-12.7182497,-5.883179213,5.55128899,-157.4153394,60.27357354,-49.88529435
1130,11.03515625,-12.03923187,-4.454199406,6.125779473,-84.01003251,5.721264694,-51.4868456
1131,11.04492188,-9.285813056,-5.244403515,3.965603224,-62.71644193,-28.87928322,-55.19907454
1132,11.0546875,-9.53807096,-4.915609044,1.18891706,-24.19571929,-45.77653826,-54.19629983
1133,11.06445313,-8.84345007,-3.682624697,0.681001748,21.03368882,-60.94742812,-63.82515004
1134,11.07421875,-7.477464681,-3.022863931,0.968003177,65.25215731,-79.93366873,-71.56012071
1135,11.08398438,-6.752749002,-1.890854611,2.004828653,72.22966932,-88.53461757,-69.45677759
1136,11.09375,-6.202491496,-1.016935005,3.399118979,42.3985423,-87.03990729,-62.44897878
1137,11.10351563,-5.760144306,-0.92744882,3.453901077,5.729102252,-87.98004371,-37.65683037
1138,11.11328125,-5.544706978,-1.604055081,2.319567281,-16.91118749,-80.76448999,-16.95906029
1139,11.12304688,-6.686788632,-1.413794724,1.295339692,-25.70920934,-59.31192289,-13.84524114
1140,11.1328125,-6.580396849,-1.541859039,1.043821352,-17.73589687,-16.33773989,-32.28474015
1141,11.14257813,-5.857400813,-2.000963599,0.803121347,-8.099473375,32.26456167,-50.88118951
1142,11.15234375,-5.002218814,-2.743851272,0.727368283,2.861908939,88.02146101,-52.72839714
1143,11.16210938,-4.245742575,-3.074435385,0.816105501,3.663230711,125.4454955,-26.19150993
1144,11.171875,-5.933272302,-3.342805421,1.304707761,1.821598814,129.9026869,14.59055959
1145,11.18164063,-6.440448875,-3.861548929,1.729514451,13.12137463,92.98046801,38.45531825
1146,11.19140625,-4.624644816,-4.395353647,1.076413281,32.49152347,59.99541588,60.83301815
1147,11.20117188,-4.998477818,-4.423700565,1.333854524,49.22851636,74.53061921,78.61242778
1148,11.2109375,-4.685022301,-4.667056063,2.158271385,62.67870177,99.96400473,82.40958206
1149,11.22070313,-6.218583869,-4.450123569,2.715470026,47.93394437,134.8822831,67.09484434
1150,11.23046875,-6.923961976,-4.949367987,2.776485615,21.99165647,155.3920185,40.93869627
1151,11.24023438,-7.785762383,-5.286323361,2.451433353,-23.37485824,163.2021966,10.44378735
1152,11.25,-8.200176774,-5.529180155,2.900316084,-79.47907604,138.2692425,-1.713624207
1153,11.25976563,-8.423629906,-5.798498624,2.927861542,-129.5420936,120.4015835,-2.156324245
1154,11.26953125,-8.306200026,-6.791651944,2.609958092,-141.4163464,115.6814129,2.6396434
1155,11.27929688,-7.728156816,-7.612011878,2.858936189,-143.8850465,99.36110666,9.664375479
1156,11.2890625,-7.205652062,-7.007558152,3.144260067,-150.5781767,82.70807576,17.65326255
1157,11.29882813,-7.284023997,-6.3278721,2.90613572,-160.3574956,67.824259,25.63244693
1158,11.30859375,-7.874377369,-6.061671431,2.644570624,-170.0288258,57.32664503,28.8157433
1159,11.31835938,-8.358185769,-5.636822653,2.190603934,-175.063622,38.7307949,25.39404024
1160,11.328125,-8.784431931,-6.015541452,1.39053345,-174.8352214,6.992084639,15.90821088
1161,11.33789063,-8.255916919,-6.428973321,1.216970202,-172.1831916,-38.41186673,3.673024398
1162,11.34765625,-8.370771535,-6.769074211,1.23215721,-172.8934891,-64.37489237,-2.404681465
1163,11.35742188,-7.875906498,-7.325578359,2.344895215,-169.6903576,-86.29388333,-14.37030646
1164,11.3671875,-8.094817965,-7.093203421,2.43580966,-168.6864865,-91.08007955,-23.32661023
1165,11.37695313,-8.809057303,-6.901745673,2.074547115,-155.8620688,-95.70784909,-28.27357927
1166,11.38671875,-9.352621962,-6.863219258,2.127436565,-144.2519802,-111.491387,-33.01882549
1167,11.39648438,-9.014811653,-7.252569611,2.280938975,-144.3751451,-147.8918267,-35.67525911
1168,11.40625,-8.349302936,-8.021497809,2.024083288,-157.9505341,-164.5688572,-26.11791373
1169,11.41601563,-8.548949681,-9.093943385,1.879997234,-164.2743347,-133.8317401,-13.70583833
1170,11.42578125,-8.975966118,-8.67238049,2.284549548,-146.8795314,-114.0228062,-7.070310925
1171,11.43554688,-8.718320633,-7.985206565,0.860314972,-121.4751133,-110.5918843,-15.3791796
1172,11.4453125,-7.607892016,-6.561972501,0.067504466,-96.2794375,-121.50804,-37.86565355
1173,11.45507813,-6.324488514,-5.391906293,-1.407670431,-100.9874255,-96.99320435,-35.3370579
1174,11.46484375,-6.379274791,-4.772043328,-3.387066072,-109.5053151,-46.74106633,-29.53074109
1175,11.47460938,-5.990477785,-4.311149127,-5.718377673,-93.92195064,12.43829037,-26.46891944
1176,11.484375,-5.041589152,-4.276246519,-6.897599824,-41.28774728,40.59761193,-5.743427999
1177,11.49414063,-5.012486635,-3.782018404,-7.133527042,42.75628406,12.58733611,13.96109191
1178,11.50390625,-6.320886631,-2.975893605,-4.557567489,120.0811543,-7.43578987,23.41859294
1179,11.51367188,-8.442697347,-2.295219867,1.272786961,162.4686887,-4.3549581,36.41656427
1180,11.5234375,-7.731166659,-1.480844999,2.543651807,142.5065691,38.59219429,49.78804756
1181,11.53320313,-6.579853792,-1.219417518,1.887367489,137.9820367,87.48759394,53.32769107
1182,11.54296875,-6.272422502,-1.412593481,3.302485437,127.0824479,118.6695292,58.31519797
1183,11.55273438,-6.458580749,-2.372791118,2.167604601,102.7984164,122.314143,62.21286178
1184,11.5625,-6.472104788,-4.197904026,0.924011425,77.27174385,122.4720149,61.46538724
1185,11.57226563,-6.963494905,-5.705994854,0.886892152,48.55474632,122.0048389,57.73830624
1186,11.58203125,-7.336688705,-6.945744685,1.081574829,19.13273922,107.3228122,47.2958265
1187,11.59179688,-7.216042277,-7.205470778,1.210559269,-6.59692425,80.65487053,28.62607957
1188,11.6015625,-6.81994642,-7.08891275,0.13034401,-17.53154157,51.62649085,10.82608116
1189,11.61132813,-6.788754822,-6.630443035,-0.925383425,-7.836647221,34.3580278,0.945695239
1190,11.62109375,-7.218393812,-6.032010934,-0.676024921,-2.755799491,21.64355883,-5.54969698
1191,11.63085938,-8.736370985,-4.768170048,-4.457262569,23.71753272,-17.18754307,-26.64615522
1192,11.640625,-5.502111558,-8.35242296,4.142525301,69.90394287,-47.52991361,-24.23191917
1193,11.65039063,-8.263267364,-5.936670707,1.256974131,7.386140576,-22.98770436,11.1881407
1194,11.66015625,-8.866966826,-5.863808352,0.877432915,9.993546319,-75.84989418,10.52420911
1195,11.66992188,-6.647748655,-5.421240548,1.014689118,45.05985827,-129.1203854,15.82432005
1196,11.6796875,-7.479222715,-4.812534919,1.478087745,59.94166577,-163.8377776,21.08525141
1197,11.68945313,-7.683369532,-5.017619689,1.60550311,42.6958891,-179.7986074,22.35998578
1198,11.69921875,-7.742961956,-5.666652876,1.220208703,19.94170782,-153.4269851,20.97764772
1199,11.70898438,-7.728945212,-5.683574271,1.244209901,4.1277721,-138.8806305,17.24568459
1200,11.71875,-7.685061398,-5.067720206,1.215243713,-24.7136145,-123.5032425,6.725649172
1201,11.72851563,-8.279211069,-5.152724571,1.117787874,-44.87046634,-108.6413057,0.875066776
1202,11.73828125,-8.037524665,-5.208612204,1.114606202,-54.2521392,-89.7546714,-0.402911399
1203,11.74804688,-7.734924568,-5.475655453,1.519820889,-61.62127114,-74.4499968,-3.965476864
1204,11.7578125,-7.114525268,-5.629946852,1.613634537,-64.07949127,-64.74565294,-5.178128323
1205,11.76757813,-6.57650012,-5.422327202,1.809494066,-66.16270779,-57.96250356,-5.782127243
1206,11.77734375,-6.493869365,-5.729298546,1.795736309,-68.92360545,-48.46126322,-5.886648747
1207,11.78710938,-6.314011281,-5.68869941,1.327966954,-66.56488815,-37.1759435,-5.156715956
1208,11.796875,-6.493624362,-5.497406503,0.846852536,-63.84264629,-26.1248486,-4.610795286
1209,11.80664063,-6.890541714,-5.532571085,0.859184367,-60.28227332,-14.35498592,-2.145729087
1210,11.81640625,-7.338207962,-5.485875488,1.430761716,-57.17659581,-7.609506644,-2.044629432
1211,11.82617188,-7.953586517,-5.312534072,1.305835587,-51.50703518,-6.517558457,-3.2454738
1212,11.8359375,-8.157279826,-5.078043887,1.877789773,-37.74365619,-20.01697508,-3.160020063
1213,11.84570313,-8.327846875,-5.056683608,2.612910469,-30.58300752,-40.55450872,-4.181663554
1214,11.85546875,-7.862303879,-5.246975528,1.962271602,-27.17779963,-57.1672281,-8.04661851
1215,11.86523438,-7.521558283,-5.220555184,1.645895445,-17.93476225,-70.64063774,-11.37715885
1216,11.875,-7.253514499,-5.300677433,1.48531715,-20.11695516,-80.31606763,-13.95123861
1217,11.88476563,-6.509888494,-6.146791842,-1.342445956,-21.33586815,-77.97179679,-13.51752999
1218,11.89453125,-6.720679057,-6.029122759,-1.953870029,8.711003609,-40.38811703,-8.975978033
1219,11.90429688,-7.164176068,-5.734124804,-0.395462122,18.30557858,-16.80561723,-3.909611163
1220,11.9140625,-7.222212981,-5.840958092,0.420658565,8.351696574,-5.827742972,-1.393349675
1221,11.92382813,-7.114058106,-5.553397263,0.897245215,7.077751962,-4.705137416,-0.655729919
1222,11.93359375,-7.091618279,-5.396027249,1.037319791,5.384613279,-4.259116573,0.077383577
1223,11.94335938,-7.146354749,-5.380950743,1.126526607,3.810034891,-3.322694339,0.689434653
1224,11.953125,-7.237071242,-5.408386251,1.202581327,3.685157546,-2.537619519,0.938276677
1225,11.96289063,-7.42561123,-5.479877148,1.296130283,4.284009756,-1.616203043,1.067934063
1226,11.97265625,-7.52809592,-5.519087831,1.299354703,4.701268455,-0.513049577,1.012225304
1227,11.98242188,-7.494650711,-5.495654915,1.305890222,4.756984425,0.587826652,0.646209261
1228,11.9921875,-7.366161178,-5.466360107,1.309999737,4.633711119,1.259726495,0.277781992
1229,12.00195313,-7.231112725,-5.492112696,1.329591131,3.66835234,1.30657531,0.026231918
1230,12.01171875,-7.180731994,-5.466509853,1.237041766,1.437450009,0.964897413,-0.17148234
1231,12.02148438,-7.189160748,-5.399472121,1.089208411,-0.671823307,0.317070892,-0.061194334
1232,12.03125,-7.202845875,-5.368210202,0.998831214,-1.695808854,-0.128781174,0.05537151
1233,12.04101563,-7.266882076,-5.379268474,0.937734313,-2.418971733,-0.450113462,0.35898098
1234,12.05078125,-7.355611828,-5.449738853,1.007753629,-2.537925295,-0.880543327,0.541938321
1235,12.06054688,-7.423205619,-5.522898684,1.148601068,-2.23360967,-1.485833966,0.726462095
1236,12.0703125,-7.419495657,-5.587481869,1.29401335,-2.050647465,-1.909149077,0.787618426
1237,12.08007813,-7.372738841,-5.628759352,1.410598199,-1.869533926,-1.968404988,0.911719615
1238,12.08984375,-7.291648415,-5.586867443,1.423800172,-2.050474057,-2.034168183,1.033938178
1239,12.09960938,-7.227319005,-5.575799835,1.385851405,-2.289530015,-2.588402213,1.215848002
1240,12.109375,-7.215858035,-5.630907616,1.34945747,-2.708826273,-3.265832936,1.273026674
1241,12.11914063,-7.170829683,-5.657801935,1.293543338,-3.128893583,-3.759965045,1.269150376
1242,12.12890625,-7.135144672,-5.684560817,1.185737641,-3.910636778,-4.383931526,1.386341342
1243,12.13867188,-7.111248769,-5.684882297,1.133882828,-4.393303783,-4.51847302,1.691835858
1244,12.1484375,-7.085228216,-5.692409344,1.143517401,-4.153798821,-4.213431194,1.940880607
1245,12.15820313,-7.073549043,-5.697355297,1.193168545,-3.554655531,-3.352832252,2.070328006
1246,12.16796875,-7.071562294,-5.730836858,1.217559764,-2.894674508,-2.55027428,2.076509325
1247,12.17773438,-7.02407067,-5.721936065,1.245680658,-2.232758114,-2.174285061,2.142905662
1248,12.1875,-6.967200814,-5.73227622,1.25304872,-1.388461675,-2.099975882,2.270878307
1249,12.19726563,-6.912682507,-5.749748,1.229929941,-0.424353919,-1.841045005,2.400108455
1250,12.20703125,-6.905912389,-5.783293723,1.242535259,0.960301119,-1.210463097,2.594479858
1251,12.21679688,-6.896996685,-5.833597657,1.27912865,2.103311447,-0.460046281,2.602961356
1252,12.2265625,-6.878151191,-5.845805115,1.291228763,2.883685947,0.405498321,2.609980205
1253,12.23632813,-6.89218887,-5.819331076,1.304728879,3.424540001,0.902645534,2.552799112
1254,12.24609375,-6.963614806,-5.842241577,1.295793128,3.422997898,1.269242761,2.430689174
1255,12.25585938,-7.025076045,-5.827054491,1.250572949,2.879217563,1.316915333,2.67481495
1256,12.265625,-7.073985402,-5.740359087,1.203638127,1.792356724,1.354826979,2.916116788
1257,12.27539063,-7.092022757,-5.644534432,1.184805824,1.368489894,1.587967259,3.099815137
1258,12.28515625,-7.058128975,-5.580485664,1.169138202,1.667841679,1.953219149,3.472753508
1259,12.29492188,-7.032445289,-5.619071695,1.193670856,2.330789236,1.958381096,3.969684443
1260,12.3046875,-6.978576278,-5.693884011,1.207307745,3.29787901,1.48327151,4.404819399
1261,12.31445313,-6.926676552,-5.720884243,1.236297774,4.624576143,1.437007914,5.090046622
1262,12.32421875,-6.923015482,-5.814128917,1.306937798,6.609012365,2.617333016,5.90629494
1263,12.33398438,-6.97655764,-5.923315653,1.399142038,8.829971532,4.836740406,6.665683198
1264,12.34375,-7.029663408,-5.951285356,1.602583189,10.80952133,7.304385848,6.746122074
1265,12.35351563,-7.046462768,-5.92001436,1.762175766,11.34465598,9.018729766,6.631455801
1266,12.36328125,-7.041941156,-5.877096959,1.975743301,11.03403879,10.96285218,6.389866822
1267,12.37304688,-7.074504402,-5.955541561,2.298329024,11.44732456,12.91829714,6.275412958
1268,12.3828125,-6.973097875,-6.169636166,2.654946537,13.60877444,15.20674362,6.356163184
1269,12.39257813,-6.810153349,-6.437128656,2.909137205,16.25984626,16.04339963,6.496068806
1270,12.40234375,-6.810456564,-6.642642718,3.159348704,18.25990481,14.38137478,6.130434004
1271,12.41210938,-7.037952917,-6.739913868,3.496386882,19.42948081,9.914173743,5.195582593
1272,12.421875,-7.397476,-6.82338609,3.557077164,21.576963,2.911681023,4.133562175
1273,12.43164063,-7.744870115,-6.734945467,3.276404385,23.13954931,-7.994825403,3.116649774
1274,12.44140625,-7.856080747,-6.530283404,2.993111877,24.94328489,-18.96204122,2.409207128
1275,12.45117188,-7.81264511,-6.241752725,2.875351019,32.32011189,-34.07655401,0.975713094
1276,12.4609375,-7.57429683,-6.12557059,2.943480819,46.08078137,-46.14417298,-1.339715795
1277,12.47070313,-7.167385028,-5.954386041,3.196714969,63.45378158,-56.25460745,-4.123288267
1278,12.48046875,-6.613125993,-5.778055391,3.423998565,78.99866159,-62.24591181,-8.074008415
1279,12.49023438,-6.029758267,-5.511340261,3.731663213,92.28787271,-63.09347181,-13.06713298
1280,12.5,-5.539250904,-5.291127288,3.976705112,100.6726965,-60.43641554,-18.38170839
1281,12.50976563,-5.945542046,-5.694176318,4.379934193,106.6967459,-56.49213095,-23.08705181
1282,12.51953125,-6.546704751,-6.328719329,4.901789733,114.0633067,-56.32005374,-25.94796355
1283,12.52929688,-7.777839521,-7.191191689,5.7422985,128.9137065,-57.39293289,-25.75202577
1284,12.5390625,-8.815698005,-7.922530623,6.68355686,145.8410243,-64.73205993,-22.72954163
1285,12.54882813,-9.189109946,-8.177863491,6.878083319,154.711365,-78.36331737,-19.46188689
1286,12.55859375,-9.517669052,-7.157808322,6.40988394,153.026489,-93.47338294,-15.38996275
1287,12.56835938,-9.380852889,-5.78340348,6.280159855,147.157611,-104.0217675,-12.37237359
1288,12.578125,-8.544797213,-4.399556834,6.603529625,135.3671592,-100.2565213,-9.705562738
1289,12.58789063,-8.600586269,-3.634146042,6.228936462,128.1245179,-88.31588739,-7.295401608
1290,12.59765625,-8.720576589,-3.517698717,5.421879037,136.5276539,-79.87265695,-4.261828654
1291,12.60742188,-8.763544158,-3.966015983,3.267801205,169.599026,-56.78645334,1.355239814
1292,12.6171875,-8.215452254,-5.005540455,1.706203804,206.7809892,-21.92476104,5.307098002
1293,12.62695313,-6.89965555,-6.216031197,2.564151191,213.4462346,-2.530901295,5.902285865
1294,12.63671875,-5.821684123,-6.720886253,4.190189339,196.9812866,-3.957981602,4.023773617
1295,12.64648438,-5.485067666,-6.44143465,6.075011848,166.7226399,-9.791762724,-0.716903246
1296,12.65625,-5.790489891,-5.209163968,6.488407554,140.8210948,-17.15145946,-8.216480198
1297,12.66601563,-6.168434092,-3.796506143,5.503683175,136.4086829,-13.81460223,-13.40937043
1298,12.67578125,-6.449902598,-3.059047151,5.072991804,144.4508367,-3.914779072,-15.0609052
1299,12.68554688,-6.472284368,-2.466155747,4.895959536,159.1981117,4.394077772,-16.06664173
1300,12.6953125,-5.951621182,-2.203291508,4.715514843,168.2382313,5.791627636,-12.93091977
1301,12.70507813,-5.322528622,-1.832090502,5.150397967,167.0888854,4.988758248,-9.114935496
1302,12.71484375,-4.899924382,-1.419834611,5.683176899,155.2052344,3.541831549,-7.947249483
1303,12.72460938,-4.75807829,-1.201977811,5.786511877,135.0484362,3.475220332,-7.434149716
1304,12.734375,-4.724932026,-1.013651575,5.616920101,112.3771517,-1.214331155,-5.777963692
1305,12.74414063,-4.571737149,-0.669284997,5.497897782,90.23602565,-4.104282051,-1.5835719
1306,12.75390625,-4.211207405,-0.268024918,5.306917134,66.09185286,-2.954307041,-1.888675387
1307,12.76367188,-3.989178153,-0.42875899,5.193053473,48.52448986,-0.805060565,-4.31561063
1308,12.7734375,-3.917231162,-0.783404126,5.42805123,29.44774311,1.68959152,-7.304294607
1309,12.78320313,-3.704290443,-0.948771302,5.161007292,14.05315732,4.071332423,-10.52120825
1310,12.79296875,-3.512291919,-1.066064632,4.902220804,-3.113656204,10.72613027,-12.74535322
1311,12.80273438,-3.435304163,-0.981096989,4.83420104,-20.03141487,15.86821198,-15.22023252
1312,12.8125,-3.247368478,-0.665907683,4.918717,-33.20626155,20.90185109,-18.16976744
1313,12.82226563,-3.210863016,-0.496797576,5.157565033,-46.26926444,27.3186964,-19.81846154
1314,12.83203125,-3.342222305,-0.363669245,5.838139829,-59.62783201,31.75773158,-19.56321121
1315,12.84179688,-3.655822768,-0.426348991,6.494996517,-68.33002048,33.89739492,-18.49008592
1316,12.8515625,-4.245214115,-0.681206039,7.458127349,-74.12685832,34.20292695,-17.34672432
1317,12.86132813,-4.895366392,-1.147853061,8.218794012,-72.01042568,33.26611353,-17.21573227
1318,12.87109375,-5.530196506,-1.698253087,8.349486466,-58.95659798,29.36562939,-17.22392184
1319,12.88085938,-5.774001492,-2.163196564,8.211940918,-33.10215925,23.9913323,-17.10978669
1320,12.890625,-5.545729219,-2.381376417,8.212662396,-9.556569275,21.35312479,-15.51747705
1321,12.90039063,-5.20951165,-2.483961705,8.213038211,1.899752843,21.8032098,-11.07718048
1322,12.91015625,-5.053428507,-2.564950177,8.170305639,6.599117781,21.51096002,-5.748852152
1323,12.91992188,-5.038888161,-2.562748281,8.07829282,7.145434214,20.1565089,-3.838415055
1324,12.9296875,-5.058802354,-2.483593445,7.838187401,6.067714519,18.37327854,-3.850152572
1325,12.93945313,-5.114309097,-2.423055008,7.530114669,5.711519613,17.71977461,-5.458153287
1326,12.94921875,-5.194526847,-2.42670589,7.343840417,6.616502062,18.36706042,-7.116840006
1327,12.95898438,-5.242655569,-2.51444178,7.279888384,8.721241973,20.49481199,-8.702526672
1328,12.96875,-5.213137983,-2.591335446,7.491647949,11.96751205,23.99299986,-11.14122101
1329,12.97851563,-5.262148037,-2.633721172,7.869948937,12.14039176,26.9637177,-14.6462414
1330,12.98828125,-5.489775253,-2.690394919,8.380517079,10.58626949,25.22426353,-18.48495486
1331,12.99804688,-5.749070849,-2.622368696,8.755992782,11.21413989,20.94836638,-20.77906874
1332,13.0078125,-5.857337626,-2.393946089,9.158374583,12.63868526,14.13223188,-23.07792309
1333,13.01757813,-6.00186597,-2.105238139,9.167808365,11.04620341,7.199360466,-25.2693061
1334,13.02734375,-5.88535022,-1.459270191,8.763213632,14.6750916,4.298661128,-21.867888
1335,13.03710938,-5.576389087,-0.854154862,8.192318665,18.77270593,4.578456078,-19.13157463
1336,13.046875,-5.697257731,-0.505959491,7.617853412,19.25063824,5.369300316,-18.5094853
1337,13.05664063,-6.833035232,-0.318211435,6.862529531,22.2046694,6.727529668,-20.52530354
1338,13.06640625,-9.747914221,-0.517052603,6.671692906,39.38390234,11.37412883,-21.83972314
1339,13.07617188,-12.92522395,-0.609645895,7.235082941,62.52864556,3.848544549,-19.21776506
